{
 "C123650": {
  "effectiveDate": "2026-03-27",
  "extensible": true,
  "name": "Tumor or Lesion Identification Test Results",
  "preferredTerm": "CDISC SDTM Tumor and Lesion Identification Test Result Terminology",
  "terms": [
   {
    "code": "C14172",
    "decode": "Benign",
    "submissionValue": "BENIGN",
    "synonyms": [
     "Benign"
    ]
   },
   {
    "code": "C132466",
    "decode": "Bone Lesion Identification",
    "submissionValue": "BONE LESION",
    "synonyms": []
   },
   {
    "code": "C173263",
    "decode": "Disease Involvement Site",
    "submissionValue": "DISEASE SITE",
    "synonyms": [
     "Site of Disease"
    ]
   },
   {
    "code": "C25321",
    "decode": "Distant",
    "submissionValue": "DISTANT",
    "synonyms": []
   },
   {
    "code": "C214749",
    "decode": "Extramedullary Lesion",
    "submissionValue": "EXTRAMEDULLARY LESION",
    "synonyms": []
   },
   {
    "code": "C67263",
    "decode": "Local",
    "submissionValue": "LOCAL",
    "synonyms": []
   },
   {
    "code": "C161481",
    "decode": "Anatomical Location of Interest",
    "submissionValue": "LOCATION OF INTEREST",
    "synonyms": []
   },
   {
    "code": "C25388",
    "decode": "Local-Regional",
    "submissionValue": "LOCOREGIONAL",
    "synonyms": []
   },
   {
    "code": "C103416",
    "decode": "Measured Tumor Identification",
    "submissionValue": "MEASURED",
    "synonyms": []
   },
   {
    "code": "C132467",
    "decode": "New Bone Lesion Lesion Identification",
    "submissionValue": "NEW BONE LESION",
    "synonyms": []
   },
   {
    "code": "C191354",
    "decode": "New Extranodal Lesion Identification",
    "submissionValue": "NEW EXTRA NODAL",
    "synonyms": []
   },
   {
    "code": "C191353",
    "decode": "New Nodal Lesion Identification",
    "submissionValue": "NEW NODAL",
    "synonyms": []
   },
   {
    "code": "C139126",
    "decode": "New Non-Target Lesion Identification",
    "submissionValue": "NEW NON-TARGET",
    "synonyms": [
     "New Non-Index"
    ]
   },
   {
    "code": "C139127",
    "decode": "New Target Lesion Identification",
    "submissionValue": "NEW TARGET",
    "synonyms": [
     "New Index"
    ]
   },
   {
    "code": "C94522",
    "decode": "New Lesion Identification",
    "submissionValue": "NEW",
    "synonyms": []
   },
   {
    "code": "C103423",
    "decode": "Non-Measurable Tumor Identification",
    "submissionValue": "NON-MEASURABLE",
    "synonyms": []
   },
   {
    "code": "C132468",
    "decode": "Non-target Enhancing Lesion Identification",
    "submissionValue": "NON-TARGET ENHANCING",
    "synonyms": []
   },
   {
    "code": "C132469",
    "decode": "Non-Target Extra Nodal Lesion Identification",
    "submissionValue": "NON-TARGET EXTRA NODAL",
    "synonyms": []
   },
   {
    "code": "C132470",
    "decode": "Non-Target Nodal Lesion Identification",
    "submissionValue": "NON-TARGET NODAL",
    "synonyms": []
   },
   {
    "code": "C132471",
    "decode": "Non-target Non-enhancing Lesion Identification",
    "submissionValue": "NON-TARGET NON-ENHANCING",
    "synonyms": []
   },
   {
    "code": "C94521",
    "decode": "Non-Target Lesion Identification",
    "submissionValue": "NON-TARGET",
    "synonyms": [
     "Non-Index"
    ]
   },
   {
    "code": "C103425",
    "decode": "Not Measured Tumor Identification",
    "submissionValue": "NOT MEASURED",
    "synonyms": []
   },
   {
    "code": "C40558",
    "decode": "Primary Lesion",
    "submissionValue": "PRIMARY",
    "synonyms": []
   },
   {
    "code": "C25643",
    "decode": "Regional",
    "submissionValue": "REGIONAL",
    "synonyms": []
   },
   {
    "code": "C103442",
    "decode": "Target Extra Nodal Tumor Identification",
    "submissionValue": "TARGET EXTRA NODAL",
    "synonyms": []
   },
   {
    "code": "C103443",
    "decode": "Target Nodal Tumor Identification",
    "submissionValue": "TARGET NODAL",
    "synonyms": []
   },
   {
    "code": "C103444",
    "decode": "Target Nodule Tumor Identification",
    "submissionValue": "TARGET NODULE",
    "synonyms": []
   },
   {
    "code": "C94520",
    "decode": "Target Lesion Identification",
    "submissionValue": "TARGET",
    "synonyms": [
     "Index"
    ]
   },
   {
    "code": "C17998",
    "decode": "Unknown",
    "submissionValue": "UNKNOWN",
    "synonyms": [
     "U",
     "UNK",
     "Unknown"
    ]
   }
  ]
 },
 "C124309": {
  "effectiveDate": "2026-03-27",
  "extensible": true,
  "name": "Tumor or Lesion Properties Test Result",
  "preferredTerm": "CDISC SDTM Tumor or Lesion Properties Test Result Terminology",
  "terms": [
   {
    "code": "C48190",
    "decode": "Absent",
    "submissionValue": "ABSENT",
    "synonyms": []
   },
   {
    "code": "C25640",
    "decode": "Reduced",
    "submissionValue": "DECREASED",
    "synonyms": [
     "Reduced"
    ]
   },
   {
    "code": "C147486",
    "decode": "Diffusely Increased",
    "submissionValue": "DIFFUSELY INCREASED",
    "synonyms": []
   },
   {
    "code": "C156593",
    "decode": "Enlargement from Nadir",
    "submissionValue": "ENLARGEMENT FROM NADIR",
    "synonyms": []
   },
   {
    "code": "C73432",
    "decode": "Enlargement",
    "submissionValue": "ENLARGEMENT",
    "synonyms": []
   },
   {
    "code": "C86071",
    "decode": "Equivocal",
    "submissionValue": "EQUIVOCAL",
    "synonyms": []
   },
   {
    "code": "C147487",
    "decode": "Focally Increased",
    "submissionValue": "FOCALLY INCREASED",
    "synonyms": []
   },
   {
    "code": "C156594",
    "decode": "Further Enlargement from Nadir",
    "submissionValue": "FURTHER ENLARGEMENT FROM NADIR",
    "synonyms": []
   },
   {
    "code": "C142367",
    "decode": "Further Enlargement",
    "submissionValue": "FURTHER ENLARGEMENT",
    "synonyms": []
   },
   {
    "code": "C25533",
    "decode": "Increase",
    "submissionValue": "INCREASED",
    "synonyms": []
   },
   {
    "code": "C62222",
    "decode": "Unevaluable",
    "submissionValue": "NE",
    "synonyms": [
     "Not Assessable",
     "Not Evaluable"
    ]
   },
   {
    "code": "C38757",
    "decode": "Negative Finding",
    "submissionValue": "NEGATIVE",
    "synonyms": []
   },
   {
    "code": "C126054",
    "decode": "Non-Pathological",
    "submissionValue": "NON-PATHOLOGICAL",
    "synonyms": []
   },
   {
    "code": "C124445",
    "decode": "Non-Palpable",
    "submissionValue": "NONPALPABLE",
    "synonyms": []
   },
   {
    "code": "C14165",
    "decode": "Normal",
    "submissionValue": "NORMAL",
    "synonyms": []
   },
   {
    "code": "C25606",
    "decode": "Palpable",
    "submissionValue": "PALPABLE",
    "synonyms": []
   },
   {
    "code": "C25610",
    "decode": "Pathologic",
    "submissionValue": "PATHOLOGICAL",
    "synonyms": []
   },
   {
    "code": "C38758",
    "decode": "Positive Finding",
    "submissionValue": "POSITIVE",
    "synonyms": []
   },
   {
    "code": "C25626",
    "decode": "Present",
    "submissionValue": "PRESENT",
    "synonyms": []
   },
   {
    "code": "C71687",
    "decode": "Unchanged",
    "submissionValue": "UNCHANGED",
    "synonyms": []
   },
   {
    "code": "C123645",
    "decode": "Unequivocal",
    "submissionValue": "UNEQUIVOCAL",
    "synonyms": []
   }
  ]
 },
 "C127259": {
  "effectiveDate": "2026-03-27",
  "extensible": true,
  "name": "Observational Study Model",
  "preferredTerm": "CDISC SDTM Observational Study Model Terminology",
  "terms": [
   {
    "code": "C15197",
    "decode": "Case-Control Study",
    "submissionValue": "CASE CONTROL",
    "synonyms": []
   },
   {
    "code": "C127779",
    "decode": "Observational Case-Crossover Study",
    "submissionValue": "CASE CROSSOVER",
    "synonyms": []
   },
   {
    "code": "C15362",
    "decode": "Case Study",
    "submissionValue": "CASE ONLY",
    "synonyms": []
   },
   {
    "code": "C15208",
    "decode": "Cohort Study",
    "submissionValue": "COHORT",
    "synonyms": []
   },
   {
    "code": "C127780",
    "decode": "Ecologic or Community Based Study",
    "submissionValue": "ECOLOGIC OR COMMUNITY",
    "synonyms": []
   },
   {
    "code": "C15407",
    "decode": "Family Study",
    "submissionValue": "FAMILY BASED",
    "synonyms": []
   }
  ]
 },
 "C127260": {
  "effectiveDate": "2026-03-27",
  "extensible": true,
  "name": "Observational Study Sampling Method",
  "preferredTerm": "CDISC SDTM Observational Study Sampling Method Terminology",
  "terms": [
   {
    "code": "C127781",
    "decode": "Non-Probability Sampling Method",
    "submissionValue": "NON-PROBABILITY SAMPLE",
    "synonyms": []
   },
   {
    "code": "C71517",
    "decode": "Equal Probability Sampling Method",
    "submissionValue": "PROBABILITY SAMPLE",
    "synonyms": []
   }
  ]
 },
 "C127261": {
  "effectiveDate": "2026-03-27",
  "extensible": true,
  "name": "Observational Study Time Perspective",
  "preferredTerm": "CDISC SDTM Observational Study Time Perspective Terminology",
  "terms": [
   {
    "code": "C53310",
    "decode": "Cross-Sectional Study",
    "submissionValue": "CROSS SECTIONAL",
    "synonyms": []
   },
   {
    "code": "C15273",
    "decode": "Longitudinal Study",
    "submissionValue": "PROSPECTIVE",
    "synonyms": []
   },
   {
    "code": "C53312",
    "decode": "Retrospective Study",
    "submissionValue": "RETROSPECTIVE",
    "synonyms": []
   }
  ]
 },
 "C127262": {
  "effectiveDate": "2026-03-27",
  "extensible": true,
  "name": "Environmental Setting",
  "preferredTerm": "CDISC SDTM Environmental Setting Terminology",
  "terms": [
   {
    "code": "C127785",
    "decode": "Childcare Center",
    "submissionValue": "CHILD CARE CENTER",
    "synonyms": []
   },
   {
    "code": "C211570",
    "decode": "Clinic",
    "submissionValue": "CLINIC",
    "synonyms": []
   },
   {
    "code": "C48953",
    "decode": "Farm",
    "submissionValue": "FARM",
    "synonyms": []
   },
   {
    "code": "C102650",
    "decode": "In the Field",
    "submissionValue": "FIELD",
    "synonyms": []
   },
   {
    "code": "C21541",
    "decode": "Healthcare Facility",
    "submissionValue": "HEALTH FACILITY",
    "synonyms": []
   },
   {
    "code": "C18002",
    "decode": "Home",
    "submissionValue": "HOME",
    "synonyms": []
   },
   {
    "code": "C16696",
    "decode": "Hospital",
    "submissionValue": "HOSPITAL",
    "synonyms": []
   },
   {
    "code": "C102647",
    "decode": "Household Environment",
    "submissionValue": "HOUSEHOLD ENVIRONMENT",
    "synonyms": []
   },
   {
    "code": "C41206",
    "decode": "Institution",
    "submissionValue": "INSTITUTION",
    "synonyms": []
   },
   {
    "code": "C181529",
    "decode": "Motor Vehicle",
    "submissionValue": "MOTOR VEHICLE",
    "synonyms": []
   },
   {
    "code": "C102679",
    "decode": "Non-household Environment",
    "submissionValue": "NON-HOUSEHOLD ENVIRONMENT",
    "synonyms": []
   },
   {
    "code": "C181530",
    "decode": "Not In Clinic",
    "submissionValue": "NOT IN CLINIC",
    "synonyms": []
   },
   {
    "code": "C16281",
    "decode": "Ambulatory Care Facility",
    "submissionValue": "OUTPATIENT CLINIC",
    "synonyms": []
   },
   {
    "code": "C85862",
    "decode": "Correctional Institution",
    "submissionValue": "PRISON",
    "synonyms": []
   },
   {
    "code": "C17118",
    "decode": "School",
    "submissionValue": "SCHOOL",
    "synonyms": []
   },
   {
    "code": "C85863",
    "decode": "Shelter",
    "submissionValue": "SHELTER",
    "synonyms": []
   },
   {
    "code": "C102712",
    "decode": "Social Setting",
    "submissionValue": "SOCIAL SETTING",
    "synonyms": []
   },
   {
    "code": "C17556",
    "decode": "Worksite",
    "submissionValue": "WORKSITE",
    "synonyms": []
   }
  ]
 },
 "C171445": {
  "effectiveDate": "2026-03-27",
  "extensible": true,
  "name": "Mode of Subject Contact",
  "preferredTerm": "CDISC SDTM Mode of Subject Contact Terminology",
  "terms": [
   {
    "code": "C25170",
    "decode": "E-mail",
    "submissionValue": "E-MAIL",
    "synonyms": [
     "Electronic Mail"
    ]
   },
   {
    "code": "C175574",
    "decode": "In Person",
    "submissionValue": "IN PERSON",
    "synonyms": [
     "In-Person"
    ]
   },
   {
    "code": "C177933",
    "decode": "Interactive Voice Response System",
    "submissionValue": "IVRS",
    "synonyms": [
     "Interactive Voice Response System"
    ]
   },
   {
    "code": "C70805",
    "decode": "Letter",
    "submissionValue": "LETTER",
    "synonyms": []
   },
   {
    "code": "C171525",
    "decode": "Audio-Videoconferencing",
    "submissionValue": "REMOTE AUDIO VIDEO",
    "synonyms": []
   },
   {
    "code": "C171524",
    "decode": "Audioconferencing",
    "submissionValue": "REMOTE AUDIO",
    "synonyms": []
   },
   {
    "code": "C171533",
    "decode": "Shipment Confirmed by Signature",
    "submissionValue": "SHIPMENT CONFIRMED BY SIGNATURE",
    "synonyms": []
   },
   {
    "code": "C171537",
    "decode": "Telephone Call",
    "submissionValue": "TELEPHONE CALL",
    "synonyms": []
   },
   {
    "code": "C157352",
    "decode": "Text Message",
    "submissionValue": "TEXT MESSAGE",
    "synonyms": []
   }
  ]
 },
 "C174222": {
  "effectiveDate": "2026-03-27",
  "extensible": true,
  "name": "Study Arm Type Value Set Terminology",
  "preferredTerm": "CDISC DDF Study Arm Type Value Set Terminology",
  "terms": [
   {
    "code": "C174267",
    "decode": "Active Comparator Arm",
    "submissionValue": "Active Comparator Arm",
    "synonyms": []
   },
   {
    "code": "C174226",
    "decode": "Control Arm",
    "submissionValue": "Control Arm",
    "synonyms": []
   },
   {
    "code": "C174266",
    "decode": "Investigational Arm",
    "submissionValue": "Experimental Arm",
    "synonyms": [
     "Investigational Arm"
    ]
   },
   {
    "code": "C174270",
    "decode": "No Intervention Arm",
    "submissionValue": "No Intervention Arm",
    "synonyms": []
   },
   {
    "code": "C174268",
    "decode": "Placebo Control Arm",
    "submissionValue": "Placebo Comparator Arm",
    "synonyms": [
     "Placebo Control Arm"
    ]
   },
   {
    "code": "C174269",
    "decode": "Sham Comparator Arm",
    "submissionValue": "Sham Comparator Arm",
    "synonyms": [
     "Sham Intervention Arm"
    ]
   },
   {
    "code": "C15538",
    "decode": "Protocol Treatment Arm",
    "submissionValue": "Treatment Arm",
    "synonyms": []
   }
  ]
 },
 "C188723": {
  "effectiveDate": "2026-03-27",
  "extensible": false,
  "name": "Study Definition Document Version Value Set Terminology",
  "preferredTerm": "CDISC DDF Study Definition Document Version Value Set Terminology",
  "terms": [
   {
    "code": "C25425",
    "decode": "Approval",
    "submissionValue": "Approved",
    "synonyms": []
   },
   {
    "code": "C85255",
    "decode": "Draft",
    "submissionValue": "Draft",
    "synonyms": []
   },
   {
    "code": "C25508",
    "decode": "Final",
    "submissionValue": "Final",
    "synonyms": []
   },
   {
    "code": "C63553",
    "decode": "Obsolete",
    "submissionValue": "Obsolete",
    "synonyms": []
   },
   {
    "code": "C188862",
    "decode": "Pending Review",
    "submissionValue": "Pending Review",
    "synonyms": [
     "Draft Pending Review"
    ]
   }
  ]
 },
 "C188724": {
  "effectiveDate": "2026-03-27",
  "extensible": true,
  "name": "Organization Type Value Set Terminology",
  "preferredTerm": "CDISC DDF Organization Type Value Set Terminology",
  "terms": [
   {
    "code": "C18240",
    "decode": "Academia",
    "submissionValue": "Academic Institution",
    "synonyms": []
   },
   {
    "code": "C93453",
    "decode": "Study Registry",
    "submissionValue": "Clinical Study Registry",
    "synonyms": []
   },
   {
    "code": "C54148",
    "decode": "Contract Research Organization",
    "submissionValue": "Contract Research Organization",
    "synonyms": []
   },
   {
    "code": "C199144",
    "decode": "Governmental Agency or Group",
    "submissionValue": "Government Institute",
    "synonyms": []
   },
   {
    "code": "C21541",
    "decode": "Healthcare Facility",
    "submissionValue": "Healthcare Facility",
    "synonyms": []
   },
   {
    "code": "C37984",
    "decode": "Laboratory",
    "submissionValue": "Laboratory",
    "synonyms": []
   },
   {
    "code": "C215661",
    "decode": "Medical Device Company",
    "submissionValue": "Medical Device Company",
    "synonyms": []
   },
   {
    "code": "C54149",
    "decode": "Drug Company",
    "submissionValue": "Pharmaceutical Company",
    "synonyms": []
   },
   {
    "code": "C188863",
    "decode": "Regulatory Agency",
    "submissionValue": "Regulatory Agency",
    "synonyms": [
     "Regulator",
     "Regulatory Body"
    ]
   }
  ]
 },
 "C188725": {
  "effectiveDate": "2026-03-27",
  "extensible": false,
  "name": "Objective Level Value Set Terminology",
  "preferredTerm": "CDISC DDF Objective Level Value Set Terminology",
  "terms": [
   {
    "code": "C163559",
    "decode": "Trial Exploratory Objective",
    "submissionValue": "Exploratory Objective",
    "synonyms": [
     "Study Exploratory Objective",
     "Trial Exploratory Objective"
    ]
   },
   {
    "code": "C85826",
    "decode": "Trial Primary Objective",
    "submissionValue": "Study Primary Objective",
    "synonyms": [
     "Study Primary Objective",
     "Trial Primary Objective"
    ]
   },
   {
    "code": "C85827",
    "decode": "Trial Secondary Objective",
    "submissionValue": "Study Secondary Objective",
    "synonyms": [
     "Study Secondary Objective",
     "Trial Secondary Objective"
    ]
   }
  ]
 },
 "C188726": {
  "effectiveDate": "2026-03-27",
  "extensible": false,
  "name": "Endpoint Level Value Set Terminology",
  "preferredTerm": "CDISC DDF Endpoint Level Value Set Terminology",
  "terms": [
   {
    "code": "C170559",
    "decode": "Exploratory Endpoint",
    "submissionValue": "Exploratory Endpoint",
    "synonyms": []
   },
   {
    "code": "C94496",
    "decode": "Primary Endpoint",
    "submissionValue": "Primary Endpoint",
    "synonyms": []
   },
   {
    "code": "C139173",
    "decode": "Secondary Endpoint",
    "submissionValue": "Secondary Endpoint",
    "synonyms": []
   }
  ]
 },
 "C188727": {
  "effectiveDate": "2026-03-27",
  "extensible": true,
  "name": "Study Arm Data Origin Type Value Set Terminology",
  "preferredTerm": "CDISC DDF Study Arm Data Origin Type Value Set Terminology",
  "terms": [
   {
    "code": "C188866",
    "decode": "Data Generated Within Study",
    "submissionValue": "Data Generated Within Study",
    "synonyms": []
   },
   {
    "code": "C188864",
    "decode": "Historical Data",
    "submissionValue": "Historical Data",
    "synonyms": []
   },
   {
    "code": "C165830",
    "decode": "Real-world Data",
    "submissionValue": "Real World Data",
    "synonyms": []
   },
   {
    "code": "C176263",
    "decode": "Synthetic Data",
    "submissionValue": "Synthetic Data",
    "synonyms": []
   }
  ]
 },
 "C188728": {
  "effectiveDate": "2026-03-27",
  "extensible": true,
  "name": "Encounter Type Value Set Terminology",
  "preferredTerm": "CDISC DDF Encounter Type Value Set Terminology",
  "terms": [
   {
    "code": "C25716",
    "decode": "Visit",
    "submissionValue": "Visit",
    "synonyms": []
   }
  ]
 },
 "C201264": {
  "effectiveDate": "2026-03-27",
  "extensible": false,
  "name": "Timing Type Value Set Terminology",
  "preferredTerm": "CDISC DDF Timing Type Value Set Terminology",
  "terms": [
   {
    "code": "C201356",
    "decode": "After Timing Type",
    "submissionValue": "After",
    "synonyms": []
   },
   {
    "code": "C201357",
    "decode": "Before Timing Type",
    "submissionValue": "Before",
    "synonyms": []
   },
   {
    "code": "C201358",
    "decode": "Fixed Reference Timing Type",
    "submissionValue": "Fixed Reference",
    "synonyms": []
   }
  ]
 },
 "C201265": {
  "effectiveDate": "2026-03-27",
  "extensible": false,
  "name": "Timing Relative To From Value Set Terminology",
  "preferredTerm": "CDISC DDF Timing Relative To From Value Set Terminology",
  "terms": [
   {
    "code": "C201352",
    "decode": "End to End",
    "submissionValue": "End to End",
    "synonyms": []
   },
   {
    "code": "C201353",
    "decode": "End to Start",
    "submissionValue": "End to Start",
    "synonyms": []
   },
   {
    "code": "C201354",
    "decode": "Start to End",
    "submissionValue": "Start to End",
    "synonyms": []
   },
   {
    "code": "C201355",
    "decode": "Start to Start",
    "submissionValue": "Start to Start",
    "synonyms": []
   }
  ]
 },
 "C207412": {
  "effectiveDate": "2026-03-27",
  "extensible": false,
  "name": "Geographic Scope Type Value Set Terminology",
  "preferredTerm": "CDISC DDF Geographic Scope Type Value Set Terminology",
  "terms": [
   {
    "code": "C25464",
    "decode": "Country",
    "submissionValue": "Country",
    "synonyms": []
   },
   {
    "code": "C68846",
    "decode": "Global",
    "submissionValue": "Global",
    "synonyms": []
   },
   {
    "code": "C41129",
    "decode": "Region",
    "submissionValue": "Region",
    "synonyms": []
   }
  ]
 },
 "C207413": {
  "effectiveDate": "2026-03-27",
  "extensible": true,
  "name": "Governance Date Type Value Set Terminology",
  "preferredTerm": "CDISC DDF Governance Date Type Value Set Terminology",
  "terms": [
   {
    "code": "C71476",
    "decode": "Approval Date",
    "submissionValue": "Approval Date",
    "synonyms": []
   },
   {
    "code": "C215663",
    "decode": "Effective Date",
    "submissionValue": "Effective Date",
    "synonyms": []
   },
   {
    "code": "C215664",
    "decode": "Issued Date",
    "submissionValue": "Issued Date",
    "synonyms": []
   }
  ]
 },
 "C207415": {
  "effectiveDate": "2026-03-27",
  "extensible": true,
  "name": "Study Amendment Reason Code Value Set Terminology",
  "preferredTerm": "CDISC DDF Study Amendment Reason Code Value Set Terminology",
  "terms": [
   {
    "code": "C207600",
    "decode": "Change In Standard Of Care",
    "submissionValue": "Change In Standard Of Care",
    "synonyms": []
   },
   {
    "code": "C207601",
    "decode": "Change In Strategy",
    "submissionValue": "Change In Strategy",
    "synonyms": []
   },
   {
    "code": "C207602",
    "decode": "IMP Addition",
    "submissionValue": "IMP Addition",
    "synonyms": []
   },
   {
    "code": "C207603",
    "decode": "Inconsistency and/or Error In The Protocol",
    "submissionValue": "Inconsistency And/or Error In The Protocol",
    "synonyms": []
   },
   {
    "code": "C207604",
    "decode": "Investigator/Site Feedback",
    "submissionValue": "Investigator/Site Feedback",
    "synonyms": []
   },
   {
    "code": "C207605",
    "decode": "IRB/IEC Feedback",
    "submissionValue": "IRB/IEC Feedback",
    "synonyms": []
   },
   {
    "code": "C207606",
    "decode": "Manufacturing Change",
    "submissionValue": "Manufacturing Change",
    "synonyms": []
   },
   {
    "code": "C207607",
    "decode": "New Data Available (Other Than Safety Data)",
    "submissionValue": "New Data Available (Other Than Safety Data)",
    "synonyms": []
   },
   {
    "code": "C207608",
    "decode": "New Regulatory Guidance",
    "submissionValue": "New Regulatory Guidance",
    "synonyms": []
   },
   {
    "code": "C207609",
    "decode": "New Safety Information Available",
    "submissionValue": "New Safety Information Available",
    "synonyms": []
   },
   {
    "code": "C48660",
    "decode": "Not Applicable",
    "submissionValue": "NOT APPLICABLE",
    "synonyms": [
     "NA",
     "Not Applicable"
    ]
   },
   {
    "code": "C17649",
    "decode": "Other",
    "submissionValue": "OTHER",
    "synonyms": [
     "Other"
    ]
   },
   {
    "code": "C207610",
    "decode": "Protocol Design Error",
    "submissionValue": "Protocol Design Error",
    "synonyms": []
   },
   {
    "code": "C207611",
    "decode": "Recruitment Difficulty",
    "submissionValue": "Recruitment Difficulty",
    "synonyms": []
   },
   {
    "code": "C207612",
    "decode": "Regulatory Agency Request To Amend",
    "submissionValue": "Regulatory Agency Request To Amend",
    "synonyms": []
   }
  ]
 },
 "C207416": {
  "effectiveDate": "2026-03-27",
  "extensible": true,
  "name": "Study Design Characteristics Value Set Terminology",
  "preferredTerm": "CDISC DDF Study Design Characteristics Value Set Terminology",
  "terms": [
   {
    "code": "C98704",
    "decode": "Adaptive Design",
    "submissionValue": "Adaptive",
    "synonyms": []
   },
   {
    "code": "C207613",
    "decode": "Extension Study Design",
    "submissionValue": "Extension",
    "synonyms": [
     "Roll-over Study"
    ]
   },
   {
    "code": "C217005",
    "decode": "Multicenter Study",
    "submissionValue": "Multicentre",
    "synonyms": []
   },
   {
    "code": "C217007",
    "decode": "Multiple Countries",
    "submissionValue": "Multiple Countries",
    "synonyms": []
   },
   {
    "code": "C46079",
    "decode": "Randomized Controlled Clinical Trial",
    "submissionValue": "Randomized",
    "synonyms": []
   },
   {
    "code": "C217006",
    "decode": "Single Country",
    "submissionValue": "Single Country",
    "synonyms": []
   },
   {
    "code": "C217004",
    "decode": "Single-Center Study",
    "submissionValue": "Single-Centre",
    "synonyms": []
   },
   {
    "code": "C25689",
    "decode": "Stratification",
    "submissionValue": "Stratification",
    "synonyms": []
   },
   {
    "code": "C147145",
    "decode": "Stratified Randomization",
    "submissionValue": "Stratified Randomisation",
    "synonyms": []
   }
  ]
 },
 "C207417": {
  "effectiveDate": "2026-03-27",
  "extensible": false,
  "name": "Study Intervention Role Value Set Terminology",
  "preferredTerm": "CDISC DDF Study Intervention Role Value Set Terminology",
  "terms": [
   {
    "code": "C68609",
    "decode": "Active Comparator",
    "submissionValue": "Active Comparator",
    "synonyms": [
     "Active Control"
    ]
   },
   {
    "code": "C207614",
    "decode": "Additional Required Medicinal Product",
    "submissionValue": "Additional Required Treatment",
    "synonyms": []
   },
   {
    "code": "C165822",
    "decode": "Background Treatment",
    "submissionValue": "Background Treatment",
    "synonyms": []
   },
   {
    "code": "C158128",
    "decode": "Challenge Agent",
    "submissionValue": "Challenge Agent",
    "synonyms": []
   },
   {
    "code": "C18020",
    "decode": "Diagnostic Procedure",
    "submissionValue": "Diagnostic",
    "synonyms": []
   },
   {
    "code": "C41161",
    "decode": "Protocol Agent",
    "submissionValue": "Experimental Intervention",
    "synonyms": [
     "Investigational Interventional",
     "Investigational Therapy or Treatment"
    ]
   },
   {
    "code": "C753",
    "decode": "Placebo",
    "submissionValue": "Placebo",
    "synonyms": []
   },
   {
    "code": "C165835",
    "decode": "Rescue Medications",
    "submissionValue": "Rescue Medicine",
    "synonyms": []
   }
  ]
 },
 "C207418": {
  "effectiveDate": "2026-03-27",
  "extensible": false,
  "name": "Product Designation Value Set Terminology",
  "preferredTerm": "CDISC DDF Product Designation Value Set Terminology",
  "terms": [
   {
    "code": "C202579",
    "decode": "Investigational Medicinal Product",
    "submissionValue": "IMP",
    "synonyms": []
   },
   {
    "code": "C156473",
    "decode": "Auxiliary Medicinal Product",
    "submissionValue": "NIMP",
    "synonyms": [
     "AxIMP"
    ]
   }
  ]
 },
 "C207419": {
  "effectiveDate": "2026-03-27",
  "extensible": false,
  "name": "Study Title Type Value Set Terminology",
  "preferredTerm": "CDISC DDF Study Title Type Value Set Terminology",
  "terms": [
   {
    "code": "C207615",
    "decode": "Brief Study Title",
    "submissionValue": "Brief Study Title",
    "synonyms": [
     "Abbreviated Protocol Title"
    ]
   },
   {
    "code": "C207616",
    "decode": "Official Study Title",
    "submissionValue": "Official Study Title",
    "synonyms": []
   },
   {
    "code": "C207617",
    "decode": "Public Study Title",
    "submissionValue": "Public Study Title",
    "synonyms": []
   },
   {
    "code": "C207618",
    "decode": "Scientific Study Title",
    "submissionValue": "Scientific Study Title",
    "synonyms": []
   },
   {
    "code": "C207646",
    "decode": "Study Acronym",
    "submissionValue": "Study Acronym",
    "synonyms": [
     "Trial Acronym"
    ]
   }
  ]
 },
 "C215477": {
  "effectiveDate": "2026-03-27",
  "extensible": true,
  "name": "Study Definition Document Type Value Set Terminology",
  "preferredTerm": "CDISC DDF Study Definition Document Type Value Set Terminology",
  "terms": [
   {
    "code": "C70817",
    "decode": "Study Protocol",
    "submissionValue": "Protocol",
    "synonyms": []
   }
  ]
 },
 "C215478": {
  "effectiveDate": "2026-03-27",
  "extensible": true,
  "name": "Reference Identifier Type Value Set Terminology",
  "preferredTerm": "CDISC DDF Reference Identifier Type Value Set Terminology",
  "terms": [
   {
    "code": "C142424",
    "decode": "Clinical Development Plan",
    "submissionValue": "Clinical Development Plan",
    "synonyms": [
     "CDP"
    ]
   },
   {
    "code": "C215674",
    "decode": "Pediatric Investigation Clinical Development Plan",
    "submissionValue": "Pediatric Investigation Plan",
    "synonyms": [
     "PIP"
    ]
   }
  ]
 },
 "C215479": {
  "effectiveDate": "2026-03-27",
  "extensible": true,
  "name": "Administrable Product Property Type Value Set Terminology",
  "preferredTerm": "CDISC DDF Administrable Product Property Type Value Set Terminology",
  "terms": [
   {
    "code": "C45997",
    "decode": "pH",
    "submissionValue": "pH",
    "synonyms": [
     "pH"
    ]
   }
  ]
 },
 "C215480": {
  "effectiveDate": "2026-03-27",
  "extensible": true,
  "name": "Study Role Code Value Set Terminology",
  "preferredTerm": "CDISC DDF Study Role Code Value Set Terminology",
  "terms": [
   {
    "code": "C78726",
    "decode": "Adjudication Committee",
    "submissionValue": "Adjudication Committee",
    "synonyms": []
   },
   {
    "code": "C17445",
    "decode": "Caregiver",
    "submissionValue": "Care Provider",
    "synonyms": [
     "Caregiver",
     "Carer",
     "Caretaker"
    ]
   },
   {
    "code": "C215672",
    "decode": "Clinical Trial Physician",
    "submissionValue": "Clinical Trial Physician",
    "synonyms": [
     "Study Doctor"
    ]
   },
   {
    "code": "C215669",
    "decode": "Study Co-Sponsor",
    "submissionValue": "Co-Sponsor",
    "synonyms": []
   },
   {
    "code": "C215662",
    "decode": "Contract Research",
    "submissionValue": "Contract Research",
    "synonyms": []
   },
   {
    "code": "C142489",
    "decode": "Data Monitoring Committee",
    "submissionValue": "Data Safety Monitoring Board",
    "synonyms": [
     "Data and Safety Monitoring Board",
     "Data and Safety Monitoring Committee DSMB",
     "Data Monitoring and Oversight Committee",
     "DMC",
     "DMOC",
     "DSMC",
     "IDMC",
     "Independent Data Monitoring Committee"
    ]
   },
   {
    "code": "C215671",
    "decode": "Dose Escalation Committee",
    "submissionValue": "Dose Escalation Committee",
    "synonyms": []
   },
   {
    "code": "C142578",
    "decode": "Independent Data Monitoring Committee",
    "submissionValue": "Independent Data Monitoring Committee",
    "synonyms": []
   },
   {
    "code": "C25936",
    "decode": "Investigator",
    "submissionValue": "Investigator",
    "synonyms": []
   },
   {
    "code": "C37984",
    "decode": "Laboratory",
    "submissionValue": "Laboratory",
    "synonyms": []
   },
   {
    "code": "C215670",
    "decode": "Local Legal Sponsor",
    "submissionValue": "Local Sponsor",
    "synonyms": []
   },
   {
    "code": "C25392",
    "decode": "Manufacturer",
    "submissionValue": "Manufacturer",
    "synonyms": [
     "Manufacturer"
    ]
   },
   {
    "code": "C51876",
    "decode": "Sponsor Medical Expert",
    "submissionValue": "Medical Expert",
    "synonyms": []
   },
   {
    "code": "C207599",
    "decode": "Outcomes Assessor",
    "submissionValue": "Outcomes Assessor",
    "synonyms": []
   },
   {
    "code": "C215673",
    "decode": "Pharmacovigilance Group",
    "submissionValue": "Pharmacovigilance",
    "synonyms": []
   },
   {
    "code": "C19924",
    "decode": "Principal Investigator",
    "submissionValue": "Principal investigator",
    "synonyms": []
   },
   {
    "code": "C51851",
    "decode": "Project Coordinator",
    "submissionValue": "Project Manager",
    "synonyms": [
     "Project Coordinator"
    ]
   },
   {
    "code": "C188863",
    "decode": "Regulatory Agency",
    "submissionValue": "Regulatory Agency",
    "synonyms": [
     "Regulator",
     "Regulatory Body"
    ]
   },
   {
    "code": "C70793",
    "decode": "Clinical Study Sponsor",
    "submissionValue": "Sponsor",
    "synonyms": [
     "Clinical Study Sponsor",
     "Sponsor",
     "Study Sponsor"
    ]
   },
   {
    "code": "C51877",
    "decode": "Statistician",
    "submissionValue": "Statistician",
    "synonyms": []
   },
   {
    "code": "C80403",
    "decode": "Study Site",
    "submissionValue": "Study Site",
    "synonyms": []
   },
   {
    "code": "C41189",
    "decode": "Study Subject",
    "submissionValue": "Study Subject",
    "synonyms": []
   }
  ]
 },
 "C215481": {
  "effectiveDate": "2026-03-27",
  "extensible": true,
  "name": "Study Amendment Impact Type Value Set Terminology",
  "preferredTerm": "CDISC DDF Study Amendment Impact Type Value Set Terminology",
  "terms": [
   {
    "code": "C215667",
    "decode": "Study Data Reliability",
    "submissionValue": "Study Data Reliability",
    "synonyms": []
   },
   {
    "code": "C215668",
    "decode": "Study Data Robustness",
    "submissionValue": "Study Data Robustness",
    "synonyms": []
   },
   {
    "code": "C215666",
    "decode": "Study Subject Rights",
    "submissionValue": "Study Subject Rights",
    "synonyms": [
     "Participant Rights"
    ]
   },
   {
    "code": "C215665",
    "decode": "Study Subject Safety",
    "submissionValue": "Study Subject Safety",
    "synonyms": [
     "Participant Safety"
    ]
   }
  ]
 },
 "C215483": {
  "effectiveDate": "2026-03-27",
  "extensible": true,
  "name": "Administrable Product Sourcing Value Set Terminology",
  "preferredTerm": "CDISC DDF Administrable Product Sourcing Value Set Terminology",
  "terms": [
   {
    "code": "C215659",
    "decode": "Centrally Sourced Indicator",
    "submissionValue": "Centrally Sourced",
    "synonyms": []
   },
   {
    "code": "C215660",
    "decode": "Locally Sourced Indicator",
    "submissionValue": "Locally Sourced",
    "synonyms": []
   }
  ]
 },
 "C215484": {
  "effectiveDate": "2026-03-27",
  "extensible": true,
  "name": "Medical Device Identifier Type Value Set Terminology",
  "preferredTerm": "CDISC DDF Medical Device Identifier Type Value Set Terminology",
  "terms": [
   {
    "code": "C104504",
    "decode": "Batch Number",
    "submissionValue": "Batch Number",
    "synonyms": [
     "Batch Identifier",
     "Batch Number"
    ]
   },
   {
    "code": "C112279",
    "decode": "FDA Unique Device Identifier",
    "submissionValue": "FDA Unique Device Identification",
    "synonyms": [
     "FDA Unique Device Identification"
    ]
   },
   {
    "code": "C70848",
    "decode": "Lot Number",
    "submissionValue": "Lot Number",
    "synonyms": [
     "Lot Identifier",
     "Lot Number"
    ]
   },
   {
    "code": "C99285",
    "decode": "Model Number",
    "submissionValue": "Model Number",
    "synonyms": [
     "Model Identifier",
     "Model Number"
    ]
   }
  ]
 },
 "C215485": {
  "effectiveDate": "2026-03-27",
  "extensible": true,
  "name": "Product Organization Role Code Value Set Terminology",
  "preferredTerm": "CDISC DDF Product Organization Role Code Value Set Terminology",
  "terms": [
   {
    "code": "C25392",
    "decode": "Manufacturer",
    "submissionValue": "Manufacturer",
    "synonyms": [
     "Manufacturer"
    ]
   },
   {
    "code": "C43530",
    "decode": "Supplier",
    "submissionValue": "Supplier",
    "synonyms": []
   }
  ]
 },
 "C215486": {
  "effectiveDate": "2026-03-27",
  "extensible": true,
  "name": "Observational Study Design Subtype Value Set Terminology",
  "preferredTerm": "CDISC DDF Observational Study Design Subtype Value Set Terminology",
  "terms": [
   {
    "code": "C215657",
    "decode": "Clinical Education Study",
    "submissionValue": "Clinical Education",
    "synonyms": []
   },
   {
    "code": "C215654",
    "decode": "Disease Determinants Study",
    "submissionValue": "Disease Determinants",
    "synonyms": []
   },
   {
    "code": "C215658",
    "decode": "Disease Etiology Study",
    "submissionValue": "Disease Etiology",
    "synonyms": []
   },
   {
    "code": "C215653",
    "decode": "Disease Incidence Study",
    "submissionValue": "Disease Incidence",
    "synonyms": []
   },
   {
    "code": "C215675",
    "decode": "Disease Prevalence Study",
    "submissionValue": "Disease Prevalence",
    "synonyms": []
   },
   {
    "code": "C215655",
    "decode": "Disease Prognosis Study",
    "submissionValue": "Disease Prognosis",
    "synonyms": []
   },
   {
    "code": "C215656",
    "decode": "Drug Utilization Study",
    "submissionValue": "Drug Utilization",
    "synonyms": []
   },
   {
    "code": "C49667",
    "decode": "Safety Study",
    "submissionValue": "Safety",
    "synonyms": []
   }
  ]
 },
 "C66726": {
  "effectiveDate": "2026-03-27",
  "extensible": true,
  "name": "Dosage Form",
  "preferredTerm": "CDISC SDTM Dosage Form Terminology",
  "terms": [
   {
    "code": "C42887",
    "decode": "Aerosol Dosage Form",
    "submissionValue": "AEROSOL",
    "synonyms": [
     "aer"
    ]
   },
   {
    "code": "C42888",
    "decode": "Aerosol Foam Dosage Form",
    "submissionValue": "AEROSOL, FOAM",
    "synonyms": []
   },
   {
    "code": "C42960",
    "decode": "Metered Aerosol Dosage Form",
    "submissionValue": "AEROSOL, METERED",
    "synonyms": []
   },
   {
    "code": "C42971",
    "decode": "Powder Aerosol Dosage Form",
    "submissionValue": "AEROSOL, POWDER",
    "synonyms": []
   },
   {
    "code": "C42889",
    "decode": "Aerosol Spray Dosage Form",
    "submissionValue": "AEROSOL, SPRAY",
    "synonyms": []
   },
   {
    "code": "C42892",
    "decode": "Chewable Bar Dosage Form",
    "submissionValue": "BAR, CHEWABLE",
    "synonyms": []
   },
   {
    "code": "C42890",
    "decode": "Bead Dosage Form",
    "submissionValue": "BEAD",
    "synonyms": []
   },
   {
    "code": "C43451",
    "decode": "Extended Release Bead Implant Dosage Form",
    "submissionValue": "BEAD, IMPLANT, EXTENDED RELEASE",
    "synonyms": []
   },
   {
    "code": "C42891",
    "decode": "Block Dosage Form",
    "submissionValue": "BLOCK",
    "synonyms": []
   },
   {
    "code": "C97197",
    "decode": "Caplet Dosage Form",
    "submissionValue": "CAPLET",
    "synonyms": []
   },
   {
    "code": "C25158",
    "decode": "Capsule Dosage Form",
    "submissionValue": "CAPSULE",
    "synonyms": [
     "cap"
    ]
   },
   {
    "code": "C42896",
    "decode": "Coated Pellet in Capsule Dosage Form",
    "submissionValue": "CAPSULE, COATED PELLETS",
    "synonyms": []
   },
   {
    "code": "C42895",
    "decode": "Coated Capsule Dosage Form",
    "submissionValue": "CAPSULE, COATED",
    "synonyms": []
   },
   {
    "code": "C42917",
    "decode": "Extended Release Coated Capsule Dosage Form",
    "submissionValue": "CAPSULE, COATED, EXTENDED RELEASE",
    "synonyms": []
   },
   {
    "code": "C42904",
    "decode": "Delayed Release Pellet in Capsule Dosage Form",
    "submissionValue": "CAPSULE, DELAYED RELEASE PELLETS",
    "synonyms": []
   },
   {
    "code": "C42902",
    "decode": "Delayed Release Capsule Dosage Form",
    "submissionValue": "CAPSULE, DELAYED RELEASE",
    "synonyms": []
   },
   {
    "code": "C42916",
    "decode": "Extended Release Capsule Dosage Form",
    "submissionValue": "CAPSULE, EXTENDED RELEASE",
    "synonyms": []
   },
   {
    "code": "C42928",
    "decode": "Extended Release Film Coated Capsule Dosage Form",
    "submissionValue": "CAPSULE, FILM COATED, EXTENDED RELEASE",
    "synonyms": []
   },
   {
    "code": "C42936",
    "decode": "Gelatin Coated Capsule Dosage Form",
    "submissionValue": "CAPSULE, GELATIN COATED",
    "synonyms": []
   },
   {
    "code": "C158214",
    "decode": "Extended Release Capsule, Hard Dosage Form",
    "submissionValue": "CAPSULE, HARD, EXTENDED RELEASE",
    "synonyms": []
   },
   {
    "code": "C142247",
    "decode": "Immediate Release Capsule Dosage Form",
    "submissionValue": "CAPSULE, IMMEDIATE RELEASE",
    "synonyms": []
   },
   {
    "code": "C42954",
    "decode": "Liquid Filled Capsule Dosage Form",
    "submissionValue": "CAPSULE, LIQUID FILLED",
    "synonyms": []
   },
   {
    "code": "C184506",
    "decode": "Capsule Softgel Pharmaceutical Dosage Form",
    "submissionValue": "CAPSULE, SOFTGEL",
    "synonyms": []
   },
   {
    "code": "C158215",
    "decode": "Extended Release Capsule, Softgel Dosage Form",
    "submissionValue": "CAPSULE, SOFTGEL, EXTENDED RELEASE",
    "synonyms": []
   },
   {
    "code": "C45414",
    "decode": "Cement Dosage Form",
    "submissionValue": "CEMENT",
    "synonyms": []
   },
   {
    "code": "C42678",
    "decode": "Cigarette Dosage Form",
    "submissionValue": "CIGARETTE",
    "synonyms": []
   },
   {
    "code": "C60884",
    "decode": "Cloth Dosage Form",
    "submissionValue": "CLOTH",
    "synonyms": []
   },
   {
    "code": "C60891",
    "decode": "Concentrated Dosage Form",
    "submissionValue": "CONCENTRATE",
    "synonyms": []
   },
   {
    "code": "C42900",
    "decode": "Cone Dosage Form",
    "submissionValue": "CONE",
    "synonyms": []
   },
   {
    "code": "C42919",
    "decode": "Extended Release Core Dosage Form",
    "submissionValue": "CORE, EXTENDED RELEASE",
    "synonyms": []
   },
   {
    "code": "C28944",
    "decode": "Cream Dosage Form",
    "submissionValue": "CREAM",
    "synonyms": []
   },
   {
    "code": "C60897",
    "decode": "Augmented Cream Dosage Form",
    "submissionValue": "CREAM, AUGMENTED",
    "synonyms": []
   },
   {
    "code": "C42901",
    "decode": "Crystal Dosage Form",
    "submissionValue": "CRYSTAL",
    "synonyms": []
   },
   {
    "code": "C45415",
    "decode": "Culture Dosage Form",
    "submissionValue": "CULTURE",
    "synonyms": []
   },
   {
    "code": "C106178",
    "decode": "Extended Release Depot Dosage Form",
    "submissionValue": "DEPOT",
    "synonyms": [
     "Depot Extended Release Dosage Form"
    ]
   },
   {
    "code": "C47890",
    "decode": "Vaginal Diaphragm Dosage Form",
    "submissionValue": "DIAPHRAGM",
    "synonyms": []
   },
   {
    "code": "C43525",
    "decode": "Disc Dosage Form",
    "submissionValue": "DISC",
    "synonyms": []
   },
   {
    "code": "C42679",
    "decode": "Douche Dosage Form",
    "submissionValue": "DOUCHE",
    "synonyms": []
   },
   {
    "code": "C42763",
    "decode": "Dressing Dosage Form",
    "submissionValue": "DRESSING",
    "synonyms": []
   },
   {
    "code": "C17423",
    "decode": "Drug Delivery System",
    "submissionValue": "DRUG DELIVERY SYSTEM",
    "synonyms": []
   },
   {
    "code": "C42912",
    "decode": "Elixir Dosage Form",
    "submissionValue": "ELIXIR",
    "synonyms": []
   },
   {
    "code": "C42913",
    "decode": "Emulsion Dosage Form",
    "submissionValue": "EMULSION",
    "synonyms": []
   },
   {
    "code": "C42915",
    "decode": "Enema Dosage Form",
    "submissionValue": "ENEMA",
    "synonyms": []
   },
   {
    "code": "C42929",
    "decode": "Extract Dosage Form",
    "submissionValue": "EXTRACT",
    "synonyms": []
   },
   {
    "code": "C60926",
    "decode": "Extended Release Fiber Dosage Form",
    "submissionValue": "FIBER, EXTENDED RELEASE",
    "synonyms": []
   },
   {
    "code": "C42932",
    "decode": "Film Dosage Form",
    "submissionValue": "FILM",
    "synonyms": []
   },
   {
    "code": "C42920",
    "decode": "Extended Release Film Dosage Form",
    "submissionValue": "FILM, EXTENDED RELEASE",
    "synonyms": []
   },
   {
    "code": "C42984",
    "decode": "Soluble Film Dosage Form",
    "submissionValue": "FILM, SOLUBLE",
    "synonyms": []
   },
   {
    "code": "C60927",
    "decode": "Dosage Form for Solution",
    "submissionValue": "FOR SOLUTION",
    "synonyms": []
   },
   {
    "code": "C60928",
    "decode": "Dosage Form for Suspension",
    "submissionValue": "FOR SUSPENSION",
    "synonyms": []
   },
   {
    "code": "C60929",
    "decode": "Extended Release Dosage Form for Suspension",
    "submissionValue": "FOR SUSPENSION, EXTENDED RELEASE",
    "synonyms": []
   },
   {
    "code": "C42933",
    "decode": "Gas Dosage Form",
    "submissionValue": "GAS",
    "synonyms": []
   },
   {
    "code": "C42934",
    "decode": "Gel Dosage Form",
    "submissionValue": "GEL",
    "synonyms": []
   },
   {
    "code": "C134876",
    "decode": "Chewable Gel Dosage Form",
    "submissionValue": "GEL, CHEWABLE",
    "synonyms": [
     "Gummie",
     "Gummy"
    ]
   },
   {
    "code": "C42906",
    "decode": "Dentifrice Gel Dosage Form",
    "submissionValue": "GEL, DENTIFRICE",
    "synonyms": []
   },
   {
    "code": "C60930",
    "decode": "Metered Gel Dosage Form",
    "submissionValue": "GEL, METERED",
    "synonyms": []
   },
   {
    "code": "C48193",
    "decode": "Generator Dosage Form",
    "submissionValue": "GENERATOR",
    "synonyms": []
   },
   {
    "code": "C42937",
    "decode": "Globule Dosage Form",
    "submissionValue": "GLOBULE",
    "synonyms": []
   },
   {
    "code": "C45416",
    "decode": "Graft Dosage Form",
    "submissionValue": "GRAFT",
    "synonyms": []
   },
   {
    "code": "C42938",
    "decode": "Granule Dosage Form",
    "submissionValue": "GRANULE",
    "synonyms": []
   },
   {
    "code": "C148551",
    "decode": "Coated Granules Dosage Form",
    "submissionValue": "GRANULE, COATED",
    "synonyms": []
   },
   {
    "code": "C42903",
    "decode": "Delayed Release Granules Dosage Form",
    "submissionValue": "GRANULE, DELAYED RELEASE",
    "synonyms": []
   },
   {
    "code": "C42909",
    "decode": "Effervescent Granules Dosage Form",
    "submissionValue": "GRANULE, EFFERVESCENT",
    "synonyms": []
   },
   {
    "code": "C42939",
    "decode": "Granule for Solution Dosage Form",
    "submissionValue": "GRANULE, FOR SOLUTION",
    "synonyms": []
   },
   {
    "code": "C42940",
    "decode": "Granule for Suspension Dosage Form",
    "submissionValue": "GRANULE, FOR SUSPENSION",
    "synonyms": []
   },
   {
    "code": "C42921",
    "decode": "Extended Release Granule for Suspension Dosage Form",
    "submissionValue": "GRANULE, FOR SUSPENSION, EXTENDED RELEASE",
    "synonyms": []
   },
   {
    "code": "C42941",
    "decode": "Gum Dosage Form",
    "submissionValue": "GUM",
    "synonyms": []
   },
   {
    "code": "C42894",
    "decode": "Chewing Gum Dosage Form",
    "submissionValue": "GUM, CHEWING",
    "synonyms": []
   },
   {
    "code": "C42978",
    "decode": "Resin Gum Dosage Form",
    "submissionValue": "GUM, RESIN",
    "synonyms": []
   },
   {
    "code": "C42942",
    "decode": "Implant Dosage Form",
    "submissionValue": "IMPLANT",
    "synonyms": []
   },
   {
    "code": "C42944",
    "decode": "Inhalant Dosage Form",
    "submissionValue": "INHALANT",
    "synonyms": []
   },
   {
    "code": "C149582",
    "decode": "Inhalation Vapor, Capsule Dosage Form",
    "submissionValue": "INHALATION VAPOR, CAPSULE",
    "synonyms": [
     "Capsule for Inhalation"
    ]
   },
   {
    "code": "C60931",
    "decode": "Liposomal Injection Dosage Form",
    "submissionValue": "INJECTABLE, LIPOSOMAL",
    "synonyms": []
   },
   {
    "code": "C42946",
    "decode": "Injectable Dosage Form",
    "submissionValue": "INJECTION",
    "synonyms": []
   },
   {
    "code": "C42914",
    "decode": "Emulsion for Injection Dosage Form",
    "submissionValue": "INJECTION, EMULSION",
    "synonyms": []
   },
   {
    "code": "C42950",
    "decode": "Injectable Lipid Complex Dosage Form",
    "submissionValue": "INJECTION, LIPID COMPLEX",
    "synonyms": []
   },
   {
    "code": "C42974",
    "decode": "Powder for Injectable Solution Dosage Form",
    "submissionValue": "INJECTION, POWDER, FOR SOLUTION",
    "synonyms": []
   },
   {
    "code": "C42976",
    "decode": "Powder for Injectable Suspension Dosage Form",
    "submissionValue": "INJECTION, POWDER, FOR SUSPENSION",
    "synonyms": []
   },
   {
    "code": "C42977",
    "decode": "Powder for Injectable Extended Release Suspension Dosage Form",
    "submissionValue": "INJECTION, POWDER, FOR SUSPENSION, EXTENDED RELEASE",
    "synonyms": []
   },
   {
    "code": "C42959",
    "decode": "Lyophilized Powder for Injectable Liposomal Suspension Dosage Form",
    "submissionValue": "INJECTION, POWDER, LYOPHILIZED, FOR LIPOSOMAL SUSPENSION",
    "synonyms": []
   },
   {
    "code": "C42957",
    "decode": "Lyophilized Powder for Injectable Solution Dosage Form",
    "submissionValue": "INJECTION, POWDER, LYOPHILIZED, FOR SOLUTION",
    "synonyms": []
   },
   {
    "code": "C42958",
    "decode": "Lyophilized Powder for Injectable Suspension Dosage Form",
    "submissionValue": "INJECTION, POWDER, LYOPHILIZED, FOR SUSPENSION",
    "synonyms": []
   },
   {
    "code": "C42956",
    "decode": "Lyophilized Powder for Extended Release Injectable Suspension Dosage Form",
    "submissionValue": "INJECTION, POWDER, LYOPHILIZED, FOR SUSPENSION, EXTENDED RELEASE",
    "synonyms": []
   },
   {
    "code": "C42945",
    "decode": "Injectable Solution Dosage Form",
    "submissionValue": "INJECTION, SOLUTION",
    "synonyms": []
   },
   {
    "code": "C42899",
    "decode": "Concentrated Injectable Solution Dosage Form",
    "submissionValue": "INJECTION, SOLUTION, CONCENTRATE",
    "synonyms": []
   },
   {
    "code": "C42995",
    "decode": "Injectable Suspension Dosage Form",
    "submissionValue": "INJECTION, SUSPENSION",
    "synonyms": []
   },
   {
    "code": "C42926",
    "decode": "Injectable Extended Release Suspension Dosage Form",
    "submissionValue": "INJECTION, SUSPENSION, EXTENDED RELEASE",
    "synonyms": []
   },
   {
    "code": "C42951",
    "decode": "Injectable Liposomal Suspension Dosage Form",
    "submissionValue": "INJECTION, SUSPENSION, LIPOSOMAL",
    "synonyms": []
   },
   {
    "code": "C42988",
    "decode": "Injectable Sonicated Suspension Dosage Form",
    "submissionValue": "INJECTION, SUSPENSION, SONICATED",
    "synonyms": []
   },
   {
    "code": "C60933",
    "decode": "Insert Dosage Form",
    "submissionValue": "INSERT",
    "synonyms": []
   },
   {
    "code": "C42922",
    "decode": "Extended Release Insert Dosage Form",
    "submissionValue": "INSERT, EXTENDED RELEASE",
    "synonyms": []
   },
   {
    "code": "C47915",
    "decode": "Intrauterine Device Dosage Form",
    "submissionValue": "INTRAUTERINE DEVICE",
    "synonyms": []
   },
   {
    "code": "C42947",
    "decode": "Irrigant Dosage Form",
    "submissionValue": "IRRIGANT",
    "synonyms": []
   },
   {
    "code": "C42948",
    "decode": "Jelly Dosage Form",
    "submissionValue": "JELLY",
    "synonyms": []
   },
   {
    "code": "C47916",
    "decode": "Kit Dosage Form",
    "submissionValue": "KIT",
    "synonyms": []
   },
   {
    "code": "C45413",
    "decode": "Dental Liner Dosage Form",
    "submissionValue": "LINER, DENTAL",
    "synonyms": []
   },
   {
    "code": "C42949",
    "decode": "Liniment Dosage Form",
    "submissionValue": "LINIMENT",
    "synonyms": []
   },
   {
    "code": "C42952",
    "decode": "Lipstick Dosage Form",
    "submissionValue": "LIPSTICK",
    "synonyms": []
   },
   {
    "code": "C42953",
    "decode": "Liquid Dosage Form",
    "submissionValue": "LIQUID",
    "synonyms": []
   },
   {
    "code": "C60934",
    "decode": "Extended Release Liquid Dosage Form",
    "submissionValue": "LIQUID, EXTENDED RELEASE",
    "synonyms": []
   },
   {
    "code": "C29167",
    "decode": "Lotion Dosage Form",
    "submissionValue": "LOTION",
    "synonyms": []
   },
   {
    "code": "C60957",
    "decode": "Augmented Lotion Dosage Form",
    "submissionValue": "LOTION, AUGMENTED",
    "synonyms": []
   },
   {
    "code": "C60958",
    "decode": "Lotion Shampoo Dosage Form",
    "submissionValue": "LOTION/SHAMPOO",
    "synonyms": []
   },
   {
    "code": "C42955",
    "decode": "Lozenge Dosage Form",
    "submissionValue": "LOZENGE",
    "synonyms": []
   },
   {
    "code": "C29269",
    "decode": "Mouthwash Dosage Form",
    "submissionValue": "MOUTHWASH",
    "synonyms": []
   },
   {
    "code": "C214665",
    "decode": "Nanosuspension Dosage Form",
    "submissionValue": "NANOSUSPENSION",
    "synonyms": [
     "Nanoparticle Suspension"
    ]
   },
   {
    "code": "C48624",
    "decode": "Dosage Form Not Applicable",
    "submissionValue": "NOT APPLICABLE",
    "synonyms": []
   },
   {
    "code": "C42965",
    "decode": "Oil Dosage Form",
    "submissionValue": "OIL",
    "synonyms": []
   },
   {
    "code": "C42966",
    "decode": "Ointment Dosage Form",
    "submissionValue": "OINTMENT",
    "synonyms": [
     "oint"
    ]
   },
   {
    "code": "C60984",
    "decode": "Augmented Ointment Dosage Form",
    "submissionValue": "OINTMENT, AUGMENTED",
    "synonyms": []
   },
   {
    "code": "C47887",
    "decode": "Packing Dosage Form",
    "submissionValue": "PACKING",
    "synonyms": []
   },
   {
    "code": "C42967",
    "decode": "Paste Dosage Form",
    "submissionValue": "PASTE",
    "synonyms": []
   },
   {
    "code": "C42907",
    "decode": "Dentifrice Paste Dosage Form",
    "submissionValue": "PASTE, DENTIFRICE",
    "synonyms": []
   },
   {
    "code": "C60985",
    "decode": "Pastille Dosage Form",
    "submissionValue": "PASTILLE",
    "synonyms": []
   },
   {
    "code": "C42968",
    "decode": "Patch Dosage Form",
    "submissionValue": "PATCH",
    "synonyms": []
   },
   {
    "code": "C42923",
    "decode": "Extended Release Patch Dosage Form",
    "submissionValue": "PATCH, EXTENDED RELEASE",
    "synonyms": []
   },
   {
    "code": "C42911",
    "decode": "Electrically Controlled Extended Release Patch Dosage Form",
    "submissionValue": "PATCH, EXTENDED RELEASE, ELECTRICALLY CONTROLLED",
    "synonyms": []
   },
   {
    "code": "C42969",
    "decode": "Pellet Dosage Form",
    "submissionValue": "PELLET",
    "synonyms": []
   },
   {
    "code": "C42943",
    "decode": "Implantable Pellet Dosage Form",
    "submissionValue": "PELLET, IMPLANTABLE",
    "synonyms": []
   },
   {
    "code": "C42918",
    "decode": "Extended Release Coated Pellet Dosage Form",
    "submissionValue": "PELLETS, COATED, EXTENDED RELEASE",
    "synonyms": []
   },
   {
    "code": "C25394",
    "decode": "Pill Dosage Form",
    "submissionValue": "PILL",
    "synonyms": []
   },
   {
    "code": "C42970",
    "decode": "Plaster Dosage Form",
    "submissionValue": "PLASTER",
    "synonyms": []
   },
   {
    "code": "C47913",
    "decode": "Poultice Dosage Form",
    "submissionValue": "POULTICE",
    "synonyms": []
   },
   {
    "code": "C42972",
    "decode": "Powder Dosage Form",
    "submissionValue": "POWDER",
    "synonyms": []
   },
   {
    "code": "C42908",
    "decode": "Dentifrice Powder Dosage Form",
    "submissionValue": "POWDER, DENTIFRICE",
    "synonyms": []
   },
   {
    "code": "C42973",
    "decode": "Powder for Solution Dosage Form",
    "submissionValue": "POWDER, FOR SOLUTION",
    "synonyms": []
   },
   {
    "code": "C42975",
    "decode": "Powder for Suspension Dosage Form",
    "submissionValue": "POWDER, FOR SUSPENSION",
    "synonyms": []
   },
   {
    "code": "C87541",
    "decode": "Lyophilized Powder Dosage Form",
    "submissionValue": "POWDER, LYOPHILIZED",
    "synonyms": []
   },
   {
    "code": "C42961",
    "decode": "Metered Powder Dosage Form",
    "submissionValue": "POWDER, METERED",
    "synonyms": []
   },
   {
    "code": "C60988",
    "decode": "Ring Dosage Form",
    "submissionValue": "RING",
    "synonyms": []
   },
   {
    "code": "C42979",
    "decode": "Rinse Dosage Form",
    "submissionValue": "RINSE",
    "synonyms": []
   },
   {
    "code": "C42980",
    "decode": "Salve Dosage Form",
    "submissionValue": "SALVE",
    "synonyms": []
   },
   {
    "code": "C42981",
    "decode": "Shampoo Dosage Form",
    "submissionValue": "SHAMPOO",
    "synonyms": []
   },
   {
    "code": "C42982",
    "decode": "Shampoo Suspension Dosage Form",
    "submissionValue": "SHAMPOO, SUSPENSION",
    "synonyms": []
   },
   {
    "code": "C42983",
    "decode": "Soap Dosage Form",
    "submissionValue": "SOAP",
    "synonyms": []
   },
   {
    "code": "C45235",
    "decode": "Solid Dosage Form",
    "submissionValue": "SOLID",
    "synonyms": []
   },
   {
    "code": "C42986",
    "decode": "Solution Dosage Form",
    "submissionValue": "SOLUTION",
    "synonyms": []
   },
   {
    "code": "C42898",
    "decode": "Concentrated Solution Dosage Form",
    "submissionValue": "SOLUTION, CONCENTRATE",
    "synonyms": []
   },
   {
    "code": "C42987",
    "decode": "Solution for Slush Dosage Form",
    "submissionValue": "SOLUTION, FOR SLUSH",
    "synonyms": []
   },
   {
    "code": "C60994",
    "decode": "Gel Forming Drop Solution Dosage Form",
    "submissionValue": "SOLUTION, GEL FORMING / DROPS",
    "synonyms": []
   },
   {
    "code": "C42935",
    "decode": "Extended Release Gel Forming Solution Dosage Form",
    "submissionValue": "SOLUTION, GEL FORMING, EXTENDED RELEASE",
    "synonyms": []
   },
   {
    "code": "C60992",
    "decode": "Drop Solution Dosage Form",
    "submissionValue": "SOLUTION/ DROPS",
    "synonyms": []
   },
   {
    "code": "C47912",
    "decode": "Sponge Dosage Form",
    "submissionValue": "SPONGE",
    "synonyms": []
   },
   {
    "code": "C42989",
    "decode": "Spray Dosage Form",
    "submissionValue": "SPRAY",
    "synonyms": []
   },
   {
    "code": "C42962",
    "decode": "Metered Spray Dosage Form",
    "submissionValue": "SPRAY, METERED",
    "synonyms": []
   },
   {
    "code": "C42990",
    "decode": "Spray Suspension Dosage Form",
    "submissionValue": "SPRAY, SUSPENSION",
    "synonyms": []
   },
   {
    "code": "C42991",
    "decode": "Stick Dosage Form",
    "submissionValue": "STICK",
    "synonyms": []
   },
   {
    "code": "C47914",
    "decode": "Strip Dosage Form",
    "submissionValue": "STRIP",
    "synonyms": []
   },
   {
    "code": "C42993",
    "decode": "Suppository Dosage Form",
    "submissionValue": "SUPPOSITORY",
    "synonyms": [
     "supp"
    ]
   },
   {
    "code": "C42924",
    "decode": "Extended Release Suppository Dosage Form",
    "submissionValue": "SUPPOSITORY, EXTENDED RELEASE",
    "synonyms": []
   },
   {
    "code": "C42994",
    "decode": "Suspension Dosage Form",
    "submissionValue": "SUSPENSION",
    "synonyms": [
     "Ready to Use Suspension",
     "susp"
    ]
   },
   {
    "code": "C42925",
    "decode": "Extended Release Suspension Dosage Form",
    "submissionValue": "SUSPENSION, EXTENDED RELEASE",
    "synonyms": []
   },
   {
    "code": "C60995",
    "decode": "Drop Suspension Dosage Form",
    "submissionValue": "SUSPENSION/DROPS",
    "synonyms": []
   },
   {
    "code": "C47889",
    "decode": "Suture Dosage Form",
    "submissionValue": "SUTURE",
    "synonyms": []
   },
   {
    "code": "C47898",
    "decode": "Swab Dosage Form",
    "submissionValue": "SWAB",
    "synonyms": []
   },
   {
    "code": "C42996",
    "decode": "Syrup Dosage Form",
    "submissionValue": "SYRUP",
    "synonyms": []
   },
   {
    "code": "C42998",
    "decode": "Tablet Dosage Form",
    "submissionValue": "TABLET",
    "synonyms": [
     "tab"
    ]
   },
   {
    "code": "C42893",
    "decode": "Chewable Tablet Dosage Form",
    "submissionValue": "TABLET, CHEWABLE",
    "synonyms": []
   },
   {
    "code": "C60997",
    "decode": "Tablet Coated Particle Dosage Form",
    "submissionValue": "TABLET, COATED PARTICLES",
    "synonyms": []
   },
   {
    "code": "C42897",
    "decode": "Coated Tablet Dosage Form",
    "submissionValue": "TABLET, COATED",
    "synonyms": []
   },
   {
    "code": "C202340",
    "decode": "Crushed Tablet Dosage Form",
    "submissionValue": "TABLET, CRUSHED",
    "synonyms": []
   },
   {
    "code": "C42997",
    "decode": "Delayed Release Particle Tablet Dosage Form",
    "submissionValue": "TABLET, DELAYED RELEASE PARTICLES",
    "synonyms": []
   },
   {
    "code": "C42905",
    "decode": "Delayed Release Tablet Dosage Form",
    "submissionValue": "TABLET, DELAYED RELEASE",
    "synonyms": [
     "Tablet, Gastro-Resistant"
    ]
   },
   {
    "code": "C42910",
    "decode": "Effervescent Tablet Dosage Form",
    "submissionValue": "TABLET, EFFERVESCENT",
    "synonyms": []
   },
   {
    "code": "C42927",
    "decode": "Extended Release Tablet Dosage Form",
    "submissionValue": "TABLET, EXTENDED RELEASE",
    "synonyms": [
     "Tablet, Prolonged Release"
    ]
   },
   {
    "code": "C42931",
    "decode": "Film Coated Tablet Dosage Form",
    "submissionValue": "TABLET, FILM COATED",
    "synonyms": []
   },
   {
    "code": "C42930",
    "decode": "Film Coated Extended Release Tablet Dosage Form",
    "submissionValue": "TABLET, FILM COATED, EXTENDED RELEASE",
    "synonyms": []
   },
   {
    "code": "C202346",
    "decode": "Film Coated Immediate Release Tablet Dosage Form",
    "submissionValue": "TABLET, FILM COATED, IMMEDIATE RELEASE",
    "synonyms": []
   },
   {
    "code": "C202345",
    "decode": "Film Coated Immediate Release Crushed Tablet Dosage Form",
    "submissionValue": "TABLET, FILM COATED, IMMEDIATE RELEASE, CRUSHED",
    "synonyms": []
   },
   {
    "code": "C61004",
    "decode": "Tablet for Solution Dosage Form",
    "submissionValue": "TABLET, FOR SOLUTION",
    "synonyms": []
   },
   {
    "code": "C61005",
    "decode": "Tablet for Suspension Dosage Form",
    "submissionValue": "TABLET, FOR SUSPENSION",
    "synonyms": []
   },
   {
    "code": "C214660",
    "decode": "Gastroretentive Tablet Dosage Form",
    "submissionValue": "TABLET, GASTRORETENTIVE",
    "synonyms": [
     "TABLET, GASTRO-RETENTIVE"
    ]
   },
   {
    "code": "C142248",
    "decode": "Immediate Release Tablet Dosage Form",
    "submissionValue": "TABLET, IMMEDIATE RELEASE",
    "synonyms": []
   },
   {
    "code": "C162112",
    "decode": "Solid Dispersion Immediate Release Tablet Dosage Form",
    "submissionValue": "TABLET, IMMEDIATE RELEASE, SOLID DISPERSION",
    "synonyms": []
   },
   {
    "code": "C170453",
    "decode": "Modified Release Tablet Dosage Form",
    "submissionValue": "TABLET, MODIFIED RELEASE",
    "synonyms": []
   },
   {
    "code": "C214664",
    "decode": "Modified Release Bilayer Tablet 1:1 Dosage Form",
    "submissionValue": "TABLET, MODIFIED RELEASE, BILAYER (1:1)",
    "synonyms": []
   },
   {
    "code": "C214663",
    "decode": "Modified Release Bilayer Tablet 1:2 Dosage Form",
    "submissionValue": "TABLET, MODIFIED RELEASE, BILAYER (1:2)",
    "synonyms": []
   },
   {
    "code": "C214529",
    "decode": "Modified Release Bilayer Tablet Dosage Form",
    "submissionValue": "TABLET, MODIFIED RELEASE, BILAYER",
    "synonyms": []
   },
   {
    "code": "C214662",
    "decode": "Modified Release Extrudable Core System Tablet Dosage Form",
    "submissionValue": "TABLET, MODIFIED RELEASE, EXTRUDABLE CORE SYSTEM",
    "synonyms": [
     "Tablet, Modified Release, ECS"
    ]
   },
   {
    "code": "C170573",
    "decode": "Long Modified Release Tablet Dosage Form",
    "submissionValue": "TABLET, MODIFIED RELEASE, LONG DURATION",
    "synonyms": []
   },
   {
    "code": "C214661",
    "decode": "Modified Release Matrix Tablet Dosage Form",
    "submissionValue": "TABLET, MODIFIED RELEASE, MATRIX",
    "synonyms": []
   },
   {
    "code": "C170574",
    "decode": "Short Modified Release Tablet Dosage Form",
    "submissionValue": "TABLET, MODIFIED RELEASE, SHORT DURATION",
    "synonyms": []
   },
   {
    "code": "C42964",
    "decode": "Multilayered Tablet Dosage Form",
    "submissionValue": "TABLET, MULTILAYER",
    "synonyms": []
   },
   {
    "code": "C42963",
    "decode": "Multilayered Extended Release Tablet Dosage Form",
    "submissionValue": "TABLET, MULTILAYER, EXTENDED RELEASE",
    "synonyms": []
   },
   {
    "code": "C42999",
    "decode": "Orally Disintegrating Tablet Dosage Form",
    "submissionValue": "TABLET, ORALLY DISINTEGRATING",
    "synonyms": []
   },
   {
    "code": "C61006",
    "decode": "Orally Disintegrating Delayed Release Tablet Dosage Form",
    "submissionValue": "TABLET, ORALLY DISINTEGRATING, DELAYED RELEASE",
    "synonyms": []
   },
   {
    "code": "C42985",
    "decode": "Soluble Tablet Dosage Form",
    "submissionValue": "TABLET, SOLUBLE",
    "synonyms": []
   },
   {
    "code": "C42992",
    "decode": "Sugar Coated Tablet Dosage Form",
    "submissionValue": "TABLET, SUGAR COATED",
    "synonyms": []
   },
   {
    "code": "C47892",
    "decode": "Tampon Dosage Form",
    "submissionValue": "TAMPON",
    "synonyms": []
   },
   {
    "code": "C47897",
    "decode": "Tape Dosage Form",
    "submissionValue": "TAPE",
    "synonyms": []
   },
   {
    "code": "C43000",
    "decode": "Tincture Dosage Form",
    "submissionValue": "TINCTURE",
    "synonyms": []
   },
   {
    "code": "C43001",
    "decode": "Troche Dosage Form",
    "submissionValue": "TROCHE",
    "synonyms": []
   },
   {
    "code": "C43002",
    "decode": "Unassigned Dosage Form",
    "submissionValue": "UNASSIGNED",
    "synonyms": []
   },
   {
    "code": "C150001",
    "decode": "Unknown Dosage Form Category",
    "submissionValue": "UNKNOWN",
    "synonyms": []
   },
   {
    "code": "C91199",
    "decode": "Vaginal Ring Dosage Form",
    "submissionValue": "VAGINAL RING",
    "synonyms": []
   },
   {
    "code": "C43003",
    "decode": "Wafer Dosage Form",
    "submissionValue": "WAFER",
    "synonyms": []
   }
  ]
 },
 "C66728": {
  "effectiveDate": "2026-03-27",
  "extensible": false,
  "name": "Relation to Reference Period",
  "preferredTerm": "CDISC SDTM Relation to Reference Period Terminology",
  "terms": [
   {
    "code": "C38008",
    "decode": "Post",
    "submissionValue": "AFTER",
    "synonyms": []
   },
   {
    "code": "C25629",
    "decode": "Prior",
    "submissionValue": "BEFORE",
    "synonyms": []
   },
   {
    "code": "C184710",
    "decode": "Before or During",
    "submissionValue": "BEFORE/DURING",
    "synonyms": []
   },
   {
    "code": "C25456",
    "decode": "Concurrent",
    "submissionValue": "COINCIDENT",
    "synonyms": []
   },
   {
    "code": "C25490",
    "decode": "During",
    "submissionValue": "DURING",
    "synonyms": []
   },
   {
    "code": "C49640",
    "decode": "During or After",
    "submissionValue": "DURING/AFTER",
    "synonyms": []
   },
   {
    "code": "C53279",
    "decode": "Continue",
    "submissionValue": "ONGOING",
    "synonyms": [
     "Continuous"
    ]
   },
   {
    "code": "C17998",
    "decode": "Unknown",
    "submissionValue": "UNKNOWN",
    "synonyms": [
     "U",
     "UNK",
     "Unknown"
    ]
   }
  ]
 },
 "C66729": {
  "effectiveDate": "2026-03-27",
  "extensible": true,
  "name": "Route of Administration Response",
  "preferredTerm": "CDISC SDTM Route of Administration Terminology",
  "terms": [
   {
    "code": "C38192",
    "decode": "Auricular Route of Administration",
    "submissionValue": "AURICULAR (OTIC)",
    "synonyms": []
   },
   {
    "code": "C38193",
    "decode": "Buccal Route of Administration",
    "submissionValue": "BUCCAL",
    "synonyms": []
   },
   {
    "code": "C38194",
    "decode": "Conjunctival Route of Administration",
    "submissionValue": "CONJUNCTIVAL",
    "synonyms": []
   },
   {
    "code": "C38675",
    "decode": "Cutaneous Route of Administration",
    "submissionValue": "CUTANEOUS",
    "synonyms": []
   },
   {
    "code": "C38197",
    "decode": "Dental Route of Administration",
    "submissionValue": "DENTAL",
    "synonyms": []
   },
   {
    "code": "C78373",
    "decode": "Dietary Route of Administration",
    "submissionValue": "DIETARY",
    "synonyms": []
   },
   {
    "code": "C38633",
    "decode": "Electro-osmosis Route of Administration",
    "submissionValue": "ELECTRO-OSMOSIS",
    "synonyms": []
   },
   {
    "code": "C38205",
    "decode": "Endocervical Route of Administration",
    "submissionValue": "ENDOCERVICAL",
    "synonyms": [
     "Intracervical Route of Administration"
    ]
   },
   {
    "code": "C38206",
    "decode": "Endosinusial Route of Administration",
    "submissionValue": "ENDOSINUSIAL",
    "synonyms": []
   },
   {
    "code": "C38208",
    "decode": "Endotracheal Route of Administration",
    "submissionValue": "ENDOTRACHEAL",
    "synonyms": [
     "Intratracheal Route of Administration"
    ]
   },
   {
    "code": "C38209",
    "decode": "Enteral Route of Administration",
    "submissionValue": "ENTERAL",
    "synonyms": []
   },
   {
    "code": "C38210",
    "decode": "Epidural Route of Administration",
    "submissionValue": "EPIDURAL",
    "synonyms": []
   },
   {
    "code": "C38211",
    "decode": "Extraamniotic Route of Administration",
    "submissionValue": "EXTRA-AMNIOTIC",
    "synonyms": []
   },
   {
    "code": "C38212",
    "decode": "Extracorporeal Circulation Route of Administration",
    "submissionValue": "EXTRACORPOREAL",
    "synonyms": []
   },
   {
    "code": "C202447",
    "decode": "Gastrojejunal Route of Administration",
    "submissionValue": "GASTROJEJUNAL",
    "synonyms": []
   },
   {
    "code": "C38200",
    "decode": "Administration via Hemodialysis",
    "submissionValue": "HEMODIALYSIS",
    "synonyms": []
   },
   {
    "code": "C85516",
    "decode": "Immersion Route of Exposure",
    "submissionValue": "IMMERSION",
    "synonyms": [
     "Submersion Route of Administration"
    ]
   },
   {
    "code": "C38215",
    "decode": "Infiltration Route of Administration",
    "submissionValue": "INFILTRATION",
    "synonyms": []
   },
   {
    "code": "C38219",
    "decode": "Interstitial Route of Administration",
    "submissionValue": "INTERSTITIAL",
    "synonyms": []
   },
   {
    "code": "C38220",
    "decode": "Intraabdominal Route of Administration",
    "submissionValue": "INTRA-ABDOMINAL",
    "synonyms": []
   },
   {
    "code": "C38221",
    "decode": "Intraamniotic Route of Administration",
    "submissionValue": "INTRA-AMNIOTIC",
    "synonyms": []
   },
   {
    "code": "C38222",
    "decode": "Intraarterial Route of Administration",
    "submissionValue": "INTRA-ARTERIAL",
    "synonyms": []
   },
   {
    "code": "C38223",
    "decode": "Intraarticular Route of Administration",
    "submissionValue": "INTRA-ARTICULAR",
    "synonyms": []
   },
   {
    "code": "C38224",
    "decode": "Intrabiliary Route of Administration",
    "submissionValue": "INTRABILIARY",
    "synonyms": []
   },
   {
    "code": "C38225",
    "decode": "Intrabronchial Route of Administration",
    "submissionValue": "INTRABRONCHIAL",
    "synonyms": []
   },
   {
    "code": "C38226",
    "decode": "Intrabursal Route of Administration",
    "submissionValue": "INTRABURSAL",
    "synonyms": []
   },
   {
    "code": "C64984",
    "decode": "Intracameral Route of Administration",
    "submissionValue": "INTRACAMERAL",
    "synonyms": []
   },
   {
    "code": "C38227",
    "decode": "Intracardiac Route of Administration",
    "submissionValue": "INTRACARDIAC",
    "synonyms": []
   },
   {
    "code": "C38228",
    "decode": "Intracartilaginous Route of Administration",
    "submissionValue": "INTRACARTILAGINOUS",
    "synonyms": []
   },
   {
    "code": "C38229",
    "decode": "Intracaudal Route of Administration",
    "submissionValue": "INTRACAUDAL",
    "synonyms": []
   },
   {
    "code": "C38230",
    "decode": "Intracavernous Route of Administration",
    "submissionValue": "INTRACAVERNOUS",
    "synonyms": []
   },
   {
    "code": "C38231",
    "decode": "Intracavitary Route of Administration",
    "submissionValue": "INTRACAVITARY",
    "synonyms": []
   },
   {
    "code": "C38232",
    "decode": "Intracerebral Route of Administration",
    "submissionValue": "INTRACEREBRAL",
    "synonyms": []
   },
   {
    "code": "C38233",
    "decode": "Intracisternal Route of Administration",
    "submissionValue": "INTRACISTERNAL",
    "synonyms": []
   },
   {
    "code": "C184707",
    "decode": "Intracochlear Route of Administration",
    "submissionValue": "INTRACOCHLEAR",
    "synonyms": []
   },
   {
    "code": "C38234",
    "decode": "Intracorneal Route of Administration",
    "submissionValue": "INTRACORNEAL",
    "synonyms": []
   },
   {
    "code": "C38217",
    "decode": "Intracoronal Dental Route of Administration",
    "submissionValue": "INTRACORONAL, DENTAL",
    "synonyms": []
   },
   {
    "code": "C38218",
    "decode": "Intracoronary Route of Administration",
    "submissionValue": "INTRACORONARY",
    "synonyms": []
   },
   {
    "code": "C38235",
    "decode": "Intracorpus Cavernosum Route of Administration",
    "submissionValue": "INTRACORPORUS CAVERNOSUM",
    "synonyms": []
   },
   {
    "code": "C38238",
    "decode": "Intradermal Route of Administration",
    "submissionValue": "INTRADERMAL",
    "synonyms": []
   },
   {
    "code": "C38239",
    "decode": "Intradiscal Route of Administration",
    "submissionValue": "INTRADISCAL",
    "synonyms": []
   },
   {
    "code": "C38240",
    "decode": "Intraductal Route of Administration",
    "submissionValue": "INTRADUCTAL",
    "synonyms": []
   },
   {
    "code": "C38241",
    "decode": "Intraduodenal Route of Administration",
    "submissionValue": "INTRADUODENAL",
    "synonyms": []
   },
   {
    "code": "C38242",
    "decode": "Intradural Route of Administration",
    "submissionValue": "INTRADURAL",
    "synonyms": []
   },
   {
    "code": "C38243",
    "decode": "Intraepidermal Route of Administration",
    "submissionValue": "INTRAEPIDERMAL",
    "synonyms": []
   },
   {
    "code": "C38245",
    "decode": "Intraesophageal Route of Administration",
    "submissionValue": "INTRAESOPHAGEAL",
    "synonyms": []
   },
   {
    "code": "C38246",
    "decode": "Intragastric Route of Administration",
    "submissionValue": "INTRAGASTRIC",
    "synonyms": []
   },
   {
    "code": "C38247",
    "decode": "Intragingival Route of Administration",
    "submissionValue": "INTRAGINGIVAL",
    "synonyms": []
   },
   {
    "code": "C38248",
    "decode": "Intrahepatic Route of Administration",
    "submissionValue": "INTRAHEPATIC",
    "synonyms": []
   },
   {
    "code": "C38249",
    "decode": "Intraileal Route of Administration",
    "submissionValue": "INTRAILEAL",
    "synonyms": []
   },
   {
    "code": "C102399",
    "decode": "Intrajejunal Route of Administration",
    "submissionValue": "INTRAJEJUNAL",
    "synonyms": []
   },
   {
    "code": "C38250",
    "decode": "Intralesional Route of Administration",
    "submissionValue": "INTRALESIONAL",
    "synonyms": []
   },
   {
    "code": "C38251",
    "decode": "Intraluminal Route of Administration",
    "submissionValue": "INTRALUMINAL",
    "synonyms": []
   },
   {
    "code": "C38252",
    "decode": "Intralymphatic Route of Administration",
    "submissionValue": "INTRALYMPHATIC",
    "synonyms": []
   },
   {
    "code": "C79137",
    "decode": "Intramammary Route of Administration",
    "submissionValue": "INTRAMAMMARY",
    "synonyms": []
   },
   {
    "code": "C156590",
    "decode": "Intramandibular Route of Administration",
    "submissionValue": "INTRAMANDIBULAR",
    "synonyms": []
   },
   {
    "code": "C38253",
    "decode": "Intramedullary Route of Administration",
    "submissionValue": "INTRAMEDULLARY",
    "synonyms": []
   },
   {
    "code": "C38254",
    "decode": "Intrameningeal Route of Administration",
    "submissionValue": "INTRAMENINGEAL",
    "synonyms": []
   },
   {
    "code": "C28161",
    "decode": "Intramuscular Route of Administration",
    "submissionValue": "INTRAMUSCULAR",
    "synonyms": []
   },
   {
    "code": "C79141",
    "decode": "Intranodal Route of Administration",
    "submissionValue": "INTRANODAL",
    "synonyms": []
   },
   {
    "code": "C38255",
    "decode": "Intraocular Route of Administration",
    "submissionValue": "INTRAOCULAR",
    "synonyms": []
   },
   {
    "code": "C64987",
    "decode": "Intraosseous Route of Administration",
    "submissionValue": "INTRAOSSEOUS",
    "synonyms": []
   },
   {
    "code": "C38256",
    "decode": "Intraovarian Route of Administration",
    "submissionValue": "INTRAOVARIAN",
    "synonyms": []
   },
   {
    "code": "C102400",
    "decode": "Intrapalatal Route of Administration",
    "submissionValue": "INTRAPALATAL",
    "synonyms": []
   },
   {
    "code": "C119548",
    "decode": "Intraparenchymal Route of Administration",
    "submissionValue": "INTRAPARENCHYMAL",
    "synonyms": []
   },
   {
    "code": "C38257",
    "decode": "Intrapericardial Route of Administration",
    "submissionValue": "INTRAPERICARDIAL",
    "synonyms": []
   },
   {
    "code": "C38258",
    "decode": "Intraperitoneal Route of Administration",
    "submissionValue": "INTRAPERITONEAL",
    "synonyms": []
   },
   {
    "code": "C38259",
    "decode": "Intrapleural Route of Administration",
    "submissionValue": "INTRAPLEURAL",
    "synonyms": []
   },
   {
    "code": "C38260",
    "decode": "Intraprostatic Route of Administration",
    "submissionValue": "INTRAPROSTATIC",
    "synonyms": []
   },
   {
    "code": "C38261",
    "decode": "Intrapulmonary Route of Administration",
    "submissionValue": "INTRAPULMONARY",
    "synonyms": []
   },
   {
    "code": "C79139",
    "decode": "Intraruminal Route of Administration",
    "submissionValue": "INTRARUMINAL",
    "synonyms": []
   },
   {
    "code": "C38262",
    "decode": "Intrasinal Route of Administration",
    "submissionValue": "INTRASINAL",
    "synonyms": []
   },
   {
    "code": "C38263",
    "decode": "Intraspinal Route of Administration",
    "submissionValue": "INTRASPINAL",
    "synonyms": []
   },
   {
    "code": "C65138",
    "decode": "Administration via Stoma",
    "submissionValue": "INTRASTOMAL",
    "synonyms": [
     "Administration via Stoma"
    ]
   },
   {
    "code": "C142365",
    "decode": "Intrasurgical Site Route of Administration",
    "submissionValue": "INTRASURGICAL SITE",
    "synonyms": []
   },
   {
    "code": "C38264",
    "decode": "Intrasynovial Route of Administration",
    "submissionValue": "INTRASYNOVIAL",
    "synonyms": []
   },
   {
    "code": "C38265",
    "decode": "Intratendinous Route of Administration",
    "submissionValue": "INTRATENDINOUS",
    "synonyms": []
   },
   {
    "code": "C38266",
    "decode": "Intratesticular Route of Administration",
    "submissionValue": "INTRATESTICULAR",
    "synonyms": []
   },
   {
    "code": "C128995",
    "decode": "Intrathalamic Route of Administration",
    "submissionValue": "INTRATHALAMIC",
    "synonyms": []
   },
   {
    "code": "C38267",
    "decode": "Intrathecal Route of Administration",
    "submissionValue": "INTRATHECAL",
    "synonyms": []
   },
   {
    "code": "C38207",
    "decode": "Endothoracic Route of Administration",
    "submissionValue": "INTRATHORACIC",
    "synonyms": []
   },
   {
    "code": "C38268",
    "decode": "Intratubular Route of Administration",
    "submissionValue": "INTRATUBULAR",
    "synonyms": []
   },
   {
    "code": "C38269",
    "decode": "Intratumoral Route of Administration",
    "submissionValue": "INTRATUMOR",
    "synonyms": [
     "Intratumor Route of Administration"
    ]
   },
   {
    "code": "C38270",
    "decode": "Intratympanic Route of Administration",
    "submissionValue": "INTRATYMPANIC",
    "synonyms": []
   },
   {
    "code": "C38272",
    "decode": "Intrauterine Route of Administration",
    "submissionValue": "INTRAUTERINE",
    "synonyms": []
   },
   {
    "code": "C128996",
    "decode": "Intravaginal Route of Administration",
    "submissionValue": "INTRAVAGINAL",
    "synonyms": []
   },
   {
    "code": "C38273",
    "decode": "Intravascular Route of Administration",
    "submissionValue": "INTRAVASCULAR",
    "synonyms": []
   },
   {
    "code": "C38274",
    "decode": "Intravenous Bolus",
    "submissionValue": "INTRAVENOUS BOLUS",
    "synonyms": []
   },
   {
    "code": "C38279",
    "decode": "Intravenous Drip",
    "submissionValue": "INTRAVENOUS DRIP",
    "synonyms": []
   },
   {
    "code": "C38276",
    "decode": "Intravenous Route of Administration",
    "submissionValue": "INTRAVENOUS",
    "synonyms": []
   },
   {
    "code": "C38277",
    "decode": "Intraventricular Route of Administration",
    "submissionValue": "INTRAVENTRICULAR",
    "synonyms": []
   },
   {
    "code": "C38278",
    "decode": "Intravesical Route of Administration",
    "submissionValue": "INTRAVESICAL",
    "synonyms": []
   },
   {
    "code": "C38280",
    "decode": "Intravitreal Route of Administration",
    "submissionValue": "INTRAVITREAL",
    "synonyms": []
   },
   {
    "code": "C38203",
    "decode": "Iontophoresis Route of Administration",
    "submissionValue": "IONTOPHORESIS",
    "synonyms": []
   },
   {
    "code": "C38281",
    "decode": "Irrigation Route of Administration",
    "submissionValue": "IRRIGATION",
    "synonyms": []
   },
   {
    "code": "C38282",
    "decode": "Laryngeal Route of Administration",
    "submissionValue": "LARYNGEAL",
    "synonyms": []
   },
   {
    "code": "C150889",
    "decode": "Microdialysis Route of Administration",
    "submissionValue": "MICRODIALYSIS",
    "synonyms": []
   },
   {
    "code": "C38284",
    "decode": "Nasal Route of Administration",
    "submissionValue": "NASAL",
    "synonyms": [
     "Intranasal Route of Administration"
    ]
   },
   {
    "code": "C188189",
    "decode": "Nasoduodenal Route of Administration",
    "submissionValue": "NASODUODENAL",
    "synonyms": []
   },
   {
    "code": "C38285",
    "decode": "Nasogastric Route of Administration",
    "submissionValue": "NASOGASTRIC",
    "synonyms": []
   },
   {
    "code": "C191350",
    "decode": "Nasojejunal Route of Administration",
    "submissionValue": "NASOJEJUNAL",
    "synonyms": []
   },
   {
    "code": "C48623",
    "decode": "Route of Administration Not Applicable",
    "submissionValue": "NOT APPLICABLE",
    "synonyms": []
   },
   {
    "code": "C38286",
    "decode": "Occlusive Dressing Technique",
    "submissionValue": "OCCLUSIVE DRESSING TECHNIQUE",
    "synonyms": []
   },
   {
    "code": "C38287",
    "decode": "Ophthalmic Route of Administration",
    "submissionValue": "OPHTHALMIC",
    "synonyms": []
   },
   {
    "code": "C78374",
    "decode": "Oral Gavage Route of Administration",
    "submissionValue": "ORAL GAVAGE",
    "synonyms": []
   },
   {
    "code": "C38288",
    "decode": "Oral Route of Administration",
    "submissionValue": "ORAL",
    "synonyms": [
     "Intraoral Route of Administration",
     "PO"
    ]
   },
   {
    "code": "C188195",
    "decode": "Orogastric Route of Administration",
    "submissionValue": "OROGASTRIC",
    "synonyms": []
   },
   {
    "code": "C64906",
    "decode": "Oromucosal Route of Administration",
    "submissionValue": "OROMUCOSAL",
    "synonyms": []
   },
   {
    "code": "C38289",
    "decode": "Oropharyngeal Route of Administration",
    "submissionValue": "OROPHARYNGEAL",
    "synonyms": []
   },
   {
    "code": "C38291",
    "decode": "Parenteral Route of Administration",
    "submissionValue": "PARENTERAL",
    "synonyms": []
   },
   {
    "code": "C38676",
    "decode": "Percutaneous Route of Administration",
    "submissionValue": "PERCUTANEOUS",
    "synonyms": []
   },
   {
    "code": "C38292",
    "decode": "Periarticular Route of Administration",
    "submissionValue": "PERIARTICULAR",
    "synonyms": []
   },
   {
    "code": "C38677",
    "decode": "Peridural Route of Administration",
    "submissionValue": "PERIDURAL",
    "synonyms": []
   },
   {
    "code": "C38293",
    "decode": "Perineural Route of Administration",
    "submissionValue": "PERINEURAL",
    "synonyms": []
   },
   {
    "code": "C38294",
    "decode": "Periodontal Route of Administration",
    "submissionValue": "PERIODONTAL",
    "synonyms": []
   },
   {
    "code": "C112396",
    "decode": "Perivenous Route of Administration",
    "submissionValue": "PERIVENOUS",
    "synonyms": []
   },
   {
    "code": "C172600",
    "decode": "Pharyngeal Route of Administration",
    "submissionValue": "PHARYNGEAL",
    "synonyms": []
   },
   {
    "code": "C38295",
    "decode": "Rectal Route of Administration",
    "submissionValue": "RECTAL",
    "synonyms": []
   },
   {
    "code": "C38216",
    "decode": "Inhalation Route of Administration",
    "submissionValue": "RESPIRATORY (INHALATION)",
    "synonyms": []
   },
   {
    "code": "C38296",
    "decode": "Retrobulbar Route of Administration",
    "submissionValue": "RETROBULBAR",
    "synonyms": []
   },
   {
    "code": "C38198",
    "decode": "Soft Tissue Route of Administration",
    "submissionValue": "SOFT TISSUE",
    "synonyms": []
   },
   {
    "code": "C38297",
    "decode": "Subarachnoid Route of Administration",
    "submissionValue": "SUBARACHNOID",
    "synonyms": []
   },
   {
    "code": "C38298",
    "decode": "Subconjunctival Route of Administration",
    "submissionValue": "SUBCONJUNCTIVAL",
    "synonyms": []
   },
   {
    "code": "C38299",
    "decode": "Subcutaneous Route of Administration",
    "submissionValue": "SUBCUTANEOUS",
    "synonyms": [
     "SC",
     "Subdermal Route of Administration"
    ]
   },
   {
    "code": "C181523",
    "decode": "Subdural Route of Administration",
    "submissionValue": "SUBDURAL",
    "synonyms": []
   },
   {
    "code": "C38300",
    "decode": "Sublingual Route of Administration",
    "submissionValue": "SUBLINGUAL",
    "synonyms": []
   },
   {
    "code": "C38301",
    "decode": "Submucosal Route of Administration",
    "submissionValue": "SUBMUCOSAL",
    "synonyms": []
   },
   {
    "code": "C79143",
    "decode": "Subretinal Route of Administration",
    "submissionValue": "SUBRETINAL",
    "synonyms": []
   },
   {
    "code": "C94636",
    "decode": "Subtenon Route of Administration",
    "submissionValue": "SUBTENON",
    "synonyms": []
   },
   {
    "code": "C128997",
    "decode": "Suprachoroidal Route of Administration",
    "submissionValue": "SUPRACHOROIDAL",
    "synonyms": []
   },
   {
    "code": "C38304",
    "decode": "Topical Route of Administration",
    "submissionValue": "TOPICAL",
    "synonyms": [
     "TOP"
    ]
   },
   {
    "code": "C38305",
    "decode": "Transdermal Route of Administration",
    "submissionValue": "TRANSDERMAL",
    "synonyms": []
   },
   {
    "code": "C221683",
    "decode": "Transforaminal Route of Administration",
    "submissionValue": "TRANSFORAMINAL",
    "synonyms": []
   },
   {
    "code": "C111326",
    "decode": "Transmammary Route of Administration",
    "submissionValue": "TRANSMAMMARY",
    "synonyms": []
   },
   {
    "code": "C38283",
    "decode": "Mucosal Route of Administration",
    "submissionValue": "TRANSMUCOSAL",
    "synonyms": []
   },
   {
    "code": "C38307",
    "decode": "Transplacental Route of Administration",
    "submissionValue": "TRANSPLACENTAL",
    "synonyms": []
   },
   {
    "code": "C38308",
    "decode": "Transtracheal Route of Administration",
    "submissionValue": "TRANSTRACHEAL",
    "synonyms": []
   },
   {
    "code": "C38309",
    "decode": "Transtympanic Route of Administration",
    "submissionValue": "TRANSTYMPANIC",
    "synonyms": []
   },
   {
    "code": "C38310",
    "decode": "Unassigned Route of Administration",
    "submissionValue": "UNASSIGNED",
    "synonyms": []
   },
   {
    "code": "C38311",
    "decode": "Unknown Route of Administration",
    "submissionValue": "UNKNOWN",
    "synonyms": []
   },
   {
    "code": "C38312",
    "decode": "Ureteral Route of Administration",
    "submissionValue": "URETERAL",
    "synonyms": []
   },
   {
    "code": "C38271",
    "decode": "Intraurethral Route of Administration",
    "submissionValue": "URETHRAL",
    "synonyms": []
   },
   {
    "code": "C38313",
    "decode": "Vaginal Route of Administration",
    "submissionValue": "VAGINAL",
    "synonyms": []
   }
  ]
 },
 "C66732": {
  "effectiveDate": "2026-03-27",
  "extensible": false,
  "name": "Sex of Participants Response",
  "preferredTerm": "CDISC SDTM Sex of Study Group Terminology",
  "terms": [
   {
    "code": "C49636",
    "decode": "Both",
    "submissionValue": "BOTH",
    "synonyms": []
   },
   {
    "code": "C16576",
    "decode": "Female",
    "submissionValue": "F",
    "synonyms": [
     "Female"
    ]
   },
   {
    "code": "C20197",
    "decode": "Male",
    "submissionValue": "M",
    "synonyms": [
     "Male"
    ]
   }
  ]
 },
 "C66733": {
  "effectiveDate": "2026-03-27",
  "extensible": true,
  "name": "Size Response",
  "preferredTerm": "CDISC SDTM Size Terminology",
  "terms": [
   {
    "code": "C49508",
    "decode": "Large",
    "submissionValue": "LARGE",
    "synonyms": []
   },
   {
    "code": "C49507",
    "decode": "Medium",
    "submissionValue": "MEDIUM",
    "synonyms": []
   },
   {
    "code": "C25376",
    "decode": "Small",
    "submissionValue": "SMALL",
    "synonyms": []
   }
  ]
 },
 "C66735": {
  "effectiveDate": "2026-03-27",
  "extensible": true,
  "name": "Trial Blinding Schema Response",
  "preferredTerm": "CDISC SDTM Trial Blinding Schema Terminology",
  "terms": [
   {
    "code": "C15228",
    "decode": "Double Blind Study",
    "submissionValue": "DOUBLE BLIND",
    "synonyms": [
     "Double Masked",
     "Double-Masked"
    ]
   },
   {
    "code": "C187674",
    "decode": "Observer Blind Study",
    "submissionValue": "OBSERVER BLIND",
    "synonyms": []
   },
   {
    "code": "C156592",
    "decode": "Open Label for Treatment And Double Blind to Dose",
    "submissionValue": "OPEN LABEL TO TREATMENT AND DOUBLE BLIND TO IMP DOSE",
    "synonyms": []
   },
   {
    "code": "C49659",
    "decode": "Open Label Study",
    "submissionValue": "OPEN LABEL",
    "synonyms": []
   },
   {
    "code": "C28233",
    "decode": "Single Blind Study",
    "submissionValue": "SINGLE BLIND",
    "synonyms": [
     "Single Masked",
     "Single-Masked"
    ]
   }
  ]
 },
 "C66736": {
  "effectiveDate": "2026-03-27",
  "extensible": true,
  "name": "Trial Intent Type Response",
  "preferredTerm": "CDISC SDTM Trial Indication Type Terminology",
  "terms": [
   {
    "code": "C15714",
    "decode": "Basic Research",
    "submissionValue": "BASIC SCIENCE",
    "synonyms": [
     "Basic Research"
    ]
   },
   {
    "code": "C49654",
    "decode": "Cure Study",
    "submissionValue": "CURE",
    "synonyms": []
   },
   {
    "code": "C139174",
    "decode": "Device Feasibility Study",
    "submissionValue": "DEVICE FEASIBILITY",
    "synonyms": []
   },
   {
    "code": "C49653",
    "decode": "Diagnosis Study",
    "submissionValue": "DIAGNOSIS",
    "synonyms": []
   },
   {
    "code": "C170629",
    "decode": "Disease Modifying Treatment Study",
    "submissionValue": "DISEASE MODIFYING",
    "synonyms": []
   },
   {
    "code": "C15245",
    "decode": "Health Services Research",
    "submissionValue": "HEALTH SERVICES RESEARCH",
    "synonyms": []
   },
   {
    "code": "C49655",
    "decode": "Adverse Effect Mitigation Study",
    "submissionValue": "MITIGATION",
    "synonyms": []
   },
   {
    "code": "C49657",
    "decode": "Prevention Study",
    "submissionValue": "PREVENTION",
    "synonyms": [
     "Prophylaxis Study"
    ]
   },
   {
    "code": "C71485",
    "decode": "Screening Study",
    "submissionValue": "SCREENING",
    "synonyms": []
   },
   {
    "code": "C71486",
    "decode": "Supportive Care Study",
    "submissionValue": "SUPPORTIVE CARE",
    "synonyms": []
   },
   {
    "code": "C49656",
    "decode": "Treatment Study",
    "submissionValue": "TREATMENT",
    "synonyms": [
     "Therapy Trial"
    ]
   }
  ]
 },
 "C66737": {
  "effectiveDate": "2026-03-27",
  "extensible": true,
  "name": "Trial Phase Response",
  "preferredTerm": "CDISC SDTM Trial Phase Terminology",
  "terms": [
   {
    "code": "C54721",
    "decode": "Early Phase 1 Trial",
    "submissionValue": "EARLY PHASE I",
    "synonyms": [
     "0",
     "Phase 0 Trial",
     "Pre-clinical Trial",
     "Trial Phase 0"
    ]
   },
   {
    "code": "C48660",
    "decode": "Not Applicable",
    "submissionValue": "NOT APPLICABLE",
    "synonyms": [
     "NA",
     "Not Applicable"
    ]
   },
   {
    "code": "C15600",
    "decode": "Phase I Trial",
    "submissionValue": "PHASE I TRIAL",
    "synonyms": [
     "1",
     "Trial Phase 1"
    ]
   },
   {
    "code": "C15693",
    "decode": "Phase I/II Trial",
    "submissionValue": "PHASE I/II TRIAL",
    "synonyms": [
     "1-2",
     "Trial Phase 1-2"
    ]
   },
   {
    "code": "C198366",
    "decode": "Phase I/II/III Trial",
    "submissionValue": "PHASE I/II/III TRIAL",
    "synonyms": [
     "1/2/3",
     "Trial Phase 1/2/3"
    ]
   },
   {
    "code": "C198367",
    "decode": "Phase I/III Trial",
    "submissionValue": "PHASE I/III TRIAL",
    "synonyms": [
     "1/3",
     "Trial Phase 1/3"
    ]
   },
   {
    "code": "C199990",
    "decode": "Phase Ia Trial",
    "submissionValue": "PHASE IA TRIAL",
    "synonyms": [
     "1A",
     "Trial Phase 1A"
    ]
   },
   {
    "code": "C199989",
    "decode": "Phase Ib Trial",
    "submissionValue": "PHASE IB TRIAL",
    "synonyms": [
     "1B",
     "Trial Phase 1B"
    ]
   },
   {
    "code": "C15601",
    "decode": "Phase II Trial",
    "submissionValue": "PHASE II TRIAL",
    "synonyms": [
     "2",
     "Trial Phase 2"
    ]
   },
   {
    "code": "C15694",
    "decode": "Phase II/III Trial",
    "submissionValue": "PHASE II/III TRIAL",
    "synonyms": [
     "2-3",
     "Trial Phase 2-3"
    ]
   },
   {
    "code": "C49686",
    "decode": "Phase IIa Trial",
    "submissionValue": "PHASE IIA TRIAL",
    "synonyms": [
     "2A",
     "Trial Phase 2A"
    ]
   },
   {
    "code": "C49688",
    "decode": "Phase IIb Trial",
    "submissionValue": "PHASE IIB TRIAL",
    "synonyms": [
     "2B",
     "Trial Phase 2B"
    ]
   },
   {
    "code": "C15602",
    "decode": "Phase III Trial",
    "submissionValue": "PHASE III TRIAL",
    "synonyms": [
     "3",
     "Trial Phase 3"
    ]
   },
   {
    "code": "C49687",
    "decode": "Phase IIIa Trial",
    "submissionValue": "PHASE IIIA TRIAL",
    "synonyms": [
     "3A",
     "Trial Phase 3A"
    ]
   },
   {
    "code": "C49689",
    "decode": "Phase IIIb Trial",
    "submissionValue": "PHASE IIIB TRIAL",
    "synonyms": [
     "3B",
     "Trial Phase 3B"
    ]
   },
   {
    "code": "C15603",
    "decode": "Phase IV Trial",
    "submissionValue": "PHASE IV TRIAL",
    "synonyms": [
     "4",
     "Trial Phase 4"
    ]
   },
   {
    "code": "C47865",
    "decode": "Phase V Trial",
    "submissionValue": "PHASE V TRIAL",
    "synonyms": [
     "5",
     "Trial Phase 5"
    ]
   }
  ]
 },
 "C66739": {
  "effectiveDate": "2026-03-27",
  "extensible": true,
  "name": "Trial Type Response",
  "preferredTerm": "CDISC SDTM Trial Type Terminology",
  "terms": [
   {
    "code": "C158283",
    "decode": "Adhesion Performance Study",
    "submissionValue": "ADHESION PERFORMANCE",
    "synonyms": []
   },
   {
    "code": "C158284",
    "decode": "Alcohol Effect Study",
    "submissionValue": "ALCOHOL EFFECT",
    "synonyms": []
   },
   {
    "code": "C49664",
    "decode": "Bioavailability Study",
    "submissionValue": "BIO-AVAILABILITY",
    "synonyms": []
   },
   {
    "code": "C49665",
    "decode": "Therapeutic Equivalency Study",
    "submissionValue": "BIO-EQUIVALENCE",
    "synonyms": []
   },
   {
    "code": "C158288",
    "decode": "Biosimilarity Study",
    "submissionValue": "BIOSIMILARITY",
    "synonyms": []
   },
   {
    "code": "C158285",
    "decode": "Device-Drug Interaction Study",
    "submissionValue": "DEVICE-DRUG INTERACTION",
    "synonyms": []
   },
   {
    "code": "C49653",
    "decode": "Diagnosis Study",
    "submissionValue": "DIAGNOSIS",
    "synonyms": []
   },
   {
    "code": "C158289",
    "decode": "Dose Finding Study",
    "submissionValue": "DOSE FINDING",
    "synonyms": []
   },
   {
    "code": "C158290",
    "decode": "Dose Proportionality Study",
    "submissionValue": "DOSE PROPORTIONALITY",
    "synonyms": []
   },
   {
    "code": "C127803",
    "decode": "Dose Response Study",
    "submissionValue": "DOSE RESPONSE",
    "synonyms": []
   },
   {
    "code": "C158286",
    "decode": "Drug-Drug Interaction Study",
    "submissionValue": "DRUG-DRUG INTERACTION",
    "synonyms": []
   },
   {
    "code": "C178057",
    "decode": "Electrocardiographic Study",
    "submissionValue": "ECG",
    "synonyms": [
     "Electrocardiographic Study"
    ]
   },
   {
    "code": "C49666",
    "decode": "Efficacy Study",
    "submissionValue": "EFFICACY",
    "synonyms": []
   },
   {
    "code": "C98729",
    "decode": "Food Effect Study",
    "submissionValue": "FOOD EFFECT",
    "synonyms": []
   },
   {
    "code": "C120842",
    "decode": "Immunogenicity Study",
    "submissionValue": "IMMUNOGENICITY",
    "synonyms": []
   },
   {
    "code": "C201484",
    "decode": "Mass Balance Study",
    "submissionValue": "MASS BALANCE",
    "synonyms": []
   },
   {
    "code": "C49662",
    "decode": "Pharmacodynamic Study",
    "submissionValue": "PHARMACODYNAMIC",
    "synonyms": []
   },
   {
    "code": "C39493",
    "decode": "Pharmacoeconomic Study",
    "submissionValue": "PHARMACOECONOMIC",
    "synonyms": []
   },
   {
    "code": "C129001",
    "decode": "Pharmacogenetic Study",
    "submissionValue": "PHARMACOGENETIC",
    "synonyms": []
   },
   {
    "code": "C49661",
    "decode": "Pharmacogenomic Study",
    "submissionValue": "PHARMACOGENOMIC",
    "synonyms": []
   },
   {
    "code": "C49663",
    "decode": "Pharmacokinetic Study",
    "submissionValue": "PHARMACOKINETIC",
    "synonyms": []
   },
   {
    "code": "C161477",
    "decode": "Position Effect Trial",
    "submissionValue": "POSITION EFFECT",
    "synonyms": []
   },
   {
    "code": "C49657",
    "decode": "Prevention Study",
    "submissionValue": "PREVENTION",
    "synonyms": [
     "Prophylaxis Study"
    ]
   },
   {
    "code": "C174366",
    "decode": "Reactogenicity Study",
    "submissionValue": "REACTOGENICITY",
    "synonyms": []
   },
   {
    "code": "C49667",
    "decode": "Safety Study",
    "submissionValue": "SAFETY",
    "synonyms": []
   },
   {
    "code": "C161478",
    "decode": "Swallowing Function Trial",
    "submissionValue": "SWALLOWING FUNCTION",
    "synonyms": []
   },
   {
    "code": "C158287",
    "decode": "Thorough QT Study",
    "submissionValue": "THOROUGH QT",
    "synonyms": [
     "TQT Study"
    ]
   },
   {
    "code": "C98791",
    "decode": "Tolerability Study",
    "submissionValue": "TOLERABILITY",
    "synonyms": []
   },
   {
    "code": "C49656",
    "decode": "Treatment Study",
    "submissionValue": "TREATMENT",
    "synonyms": [
     "Therapy Trial"
    ]
   },
   {
    "code": "C161479",
    "decode": "Usability Testing Study",
    "submissionValue": "USABILITY TESTING",
    "synonyms": []
   },
   {
    "code": "C161480",
    "decode": "Water Effect Trial",
    "submissionValue": "WATER EFFECT",
    "synonyms": []
   }
  ]
 },
 "C66742": {
  "effectiveDate": "2026-03-27",
  "extensible": false,
  "name": "No Yes Response",
  "preferredTerm": "CDISC SDTM Yes No Unknown or Not Applicable Response Terminology",
  "terms": [
   {
    "code": "C49487",
    "decode": "No",
    "submissionValue": "N",
    "synonyms": [
     "No"
    ]
   },
   {
    "code": "C48660",
    "decode": "Not Applicable",
    "submissionValue": "NA",
    "synonyms": [
     "NA",
     "Not Applicable"
    ]
   },
   {
    "code": "C17998",
    "decode": "Unknown",
    "submissionValue": "U",
    "synonyms": [
     "U",
     "UNK",
     "Unknown"
    ]
   },
   {
    "code": "C49488",
    "decode": "Yes",
    "submissionValue": "Y",
    "synonyms": [
     "Yes"
    ]
   }
  ]
 },
 "C66770": {
  "effectiveDate": "2026-03-27",
  "extensible": true,
  "name": "Units for Vital Signs Results",
  "preferredTerm": "CDISC SDTM Unit for Vital Sign Result Terminology",
  "terms": [
   {
    "code": "C25613",
    "decode": "Percentage",
    "submissionValue": "%",
    "synonyms": [
     "Percentage"
    ]
   },
   {
    "code": "C49673",
    "decode": "Beats per Minute",
    "submissionValue": "beats/min",
    "synonyms": [
     "Beats per Minute",
     "BPM",
     "bpm"
    ]
   },
   {
    "code": "C49674",
    "decode": "Breaths per Minute",
    "submissionValue": "breaths/min",
    "synonyms": [
     "Breaths per Minute"
    ]
   },
   {
    "code": "C42559",
    "decode": "Degree Celsius",
    "submissionValue": "C",
    "synonyms": [
     "Degree Celsius"
    ]
   },
   {
    "code": "C49668",
    "decode": "Centimeter",
    "submissionValue": "cm",
    "synonyms": [
     "Centimeter"
    ]
   },
   {
    "code": "C147129",
    "decode": "Centimeters of Mercury",
    "submissionValue": "cmHg",
    "synonyms": [
     "Centimeter of Mercury"
    ]
   },
   {
    "code": "C64697",
    "decode": "Deciliter",
    "submissionValue": "dL",
    "synonyms": [
     "Deciliter"
    ]
   },
   {
    "code": "C44277",
    "decode": "Degree Fahrenheit",
    "submissionValue": "F",
    "synonyms": [
     "Degree Fahrenheit"
    ]
   },
   {
    "code": "C71253",
    "decode": "International Foot",
    "submissionValue": "ft",
    "synonyms": [
     "Foot"
    ]
   },
   {
    "code": "C48155",
    "decode": "Gram",
    "submissionValue": "g",
    "synonyms": [
     "Gram"
    ]
   },
   {
    "code": "C42545",
    "decode": "Hertz",
    "submissionValue": "Hz",
    "synonyms": [
     "Cycle per Second",
     "cycle/sec",
     "Hertz"
    ]
   },
   {
    "code": "C48500",
    "decode": "Inch",
    "submissionValue": "in",
    "synonyms": [
     "Inch"
    ]
   },
   {
    "code": "C42537",
    "decode": "Kelvin",
    "submissionValue": "K",
    "synonyms": [
     "Kelvin"
    ]
   },
   {
    "code": "C139135",
    "decode": "Kilocalorie per Day",
    "submissionValue": "kcal/day",
    "synonyms": []
   },
   {
    "code": "C28252",
    "decode": "Kilogram",
    "submissionValue": "kg",
    "synonyms": [
     "Kilogram"
    ]
   },
   {
    "code": "C49671",
    "decode": "Kilogram per Square Meter",
    "submissionValue": "kg/m2",
    "synonyms": [
     "Kilogram per Square Meter"
    ]
   },
   {
    "code": "C48505",
    "decode": "Liter",
    "submissionValue": "L",
    "synonyms": [
     "Liter"
    ]
   },
   {
    "code": "C48531",
    "decode": "Pound",
    "submissionValue": "LB",
    "synonyms": [
     "lb",
     "lb_av",
     "Pound"
    ]
   },
   {
    "code": "C41139",
    "decode": "Meter",
    "submissionValue": "m",
    "synonyms": [
     "Meter"
    ]
   },
   {
    "code": "C42569",
    "decode": "Square Meter",
    "submissionValue": "m2",
    "synonyms": [
     "Square Meter"
    ]
   },
   {
    "code": "C127805",
    "decode": "Metabolic Equivalent of Task Unit",
    "submissionValue": "MET",
    "synonyms": [
     "Metabolic Equivalent of Task"
    ]
   },
   {
    "code": "C28251",
    "decode": "Millimeter",
    "submissionValue": "mm",
    "synonyms": [
     "Millimeter"
    ]
   },
   {
    "code": "C49670",
    "decode": "Millimeter of Mercury",
    "submissionValue": "mmHg",
    "synonyms": [
     "Millimeter of Mercury"
    ]
   },
   {
    "code": "C41140",
    "decode": "Millisecond",
    "submissionValue": "ms",
    "synonyms": [
     "Millisecond",
     "ms",
     "msec"
    ]
   },
   {
    "code": "C48519",
    "decode": "Ounce",
    "submissionValue": "oz",
    "synonyms": [
     "Ounce"
    ]
   },
   {
    "code": "C42547",
    "decode": "Pascal",
    "submissionValue": "Pa",
    "synonyms": [
     "Pascal"
    ]
   },
   {
    "code": "C44256",
    "decode": "Ratio",
    "submissionValue": "RATIO",
    "synonyms": []
   },
   {
    "code": "C42535",
    "decode": "Second",
    "submissionValue": "s",
    "synonyms": [
     "sec",
     "Second"
    ]
   },
   {
    "code": "C42549",
    "decode": "Watt",
    "submissionValue": "Watt",
    "synonyms": []
   }
  ]
 },
 "C66781": {
  "effectiveDate": "2026-03-27",
  "extensible": false,
  "name": "Age Unit",
  "preferredTerm": "CDISC SDTM Age Unit Terminology",
  "terms": [
   {
    "code": "C25301",
    "decode": "Day",
    "submissionValue": "DAYS",
    "synonyms": []
   },
   {
    "code": "C25529",
    "decode": "Hour",
    "submissionValue": "HOURS",
    "synonyms": [
     "h",
     "Hours",
     "hr"
    ]
   },
   {
    "code": "C29846",
    "decode": "Month",
    "submissionValue": "MONTHS",
    "synonyms": [
     "Month"
    ]
   },
   {
    "code": "C29844",
    "decode": "Week",
    "submissionValue": "WEEKS",
    "synonyms": [
     "Week"
    ]
   },
   {
    "code": "C29848",
    "decode": "Year",
    "submissionValue": "YEARS",
    "synonyms": [
     "Year"
    ]
   }
  ]
 },
 "C66797": {
  "effectiveDate": "2026-03-27",
  "extensible": false,
  "name": "Category of Inclusion/Exclusion",
  "preferredTerm": "CDISC SDTM Category for Inclusion And Or Exclusion Terminology",
  "terms": [
   {
    "code": "C25370",
    "decode": "Exclusion Criteria",
    "submissionValue": "EXCLUSION",
    "synonyms": []
   },
   {
    "code": "C25532",
    "decode": "Inclusion Criteria",
    "submissionValue": "INCLUSION",
    "synonyms": []
   }
  ]
 },
 "C71113": {
  "effectiveDate": "2026-03-27",
  "extensible": true,
  "name": "Frequency",
  "preferredTerm": "CDISC SDTM Frequency Terminology",
  "terms": [
   {
    "code": "C64526",
    "decode": "Once Weekly",
    "submissionValue": "1 TIME PER WEEK",
    "synonyms": [
     "One Time Per Week"
    ]
   },
   {
    "code": "C139179",
    "decode": "Ten Days Per Month",
    "submissionValue": "10 DAYS PER MONTH",
    "synonyms": [
     "10 Days Monthly"
    ]
   },
   {
    "code": "C176288",
    "decode": "Two Times Per Cycle",
    "submissionValue": "2 TIMES PER CYCLE",
    "synonyms": []
   },
   {
    "code": "C64497",
    "decode": "Twice Weekly",
    "submissionValue": "2 TIMES PER WEEK",
    "synonyms": [
     "BIS",
     "Twice per week"
    ]
   },
   {
    "code": "C98861",
    "decode": "Two Times Yearly",
    "submissionValue": "2 TIMES PER YEAR",
    "synonyms": [
     "2 Times Per Year"
    ]
   },
   {
    "code": "C176289",
    "decode": "Three Times Per Cycle",
    "submissionValue": "3 TIMES PER CYCLE",
    "synonyms": []
   },
   {
    "code": "C98859",
    "decode": "Three Times Monthly",
    "submissionValue": "3 TIMES PER MONTH",
    "synonyms": [
     "3 Times Per Month"
    ]
   },
   {
    "code": "C64528",
    "decode": "Three Times Weekly",
    "submissionValue": "3 TIMES PER WEEK",
    "synonyms": [
     "Three times a week",
     "TIS"
    ]
   },
   {
    "code": "C98860",
    "decode": "Three Times Yearly",
    "submissionValue": "3 TIMES PER YEAR",
    "synonyms": [
     "3 Times Per Year"
    ]
   },
   {
    "code": "C98852",
    "decode": "Four Times Monthly",
    "submissionValue": "4 TIMES PER MONTH",
    "synonyms": [
     "4 Times Per Month"
    ]
   },
   {
    "code": "C64531",
    "decode": "Four Times Weekly",
    "submissionValue": "4 TIMES PER WEEK",
    "synonyms": [
     "4 times per week",
     "QIS"
    ]
   },
   {
    "code": "C98853",
    "decode": "Four Times Yearly",
    "submissionValue": "4 TIMES PER YEAR",
    "synonyms": [
     "4 Times Per Year"
    ]
   },
   {
    "code": "C98849",
    "decode": "Five Times Daily",
    "submissionValue": "5 TIMES PER DAY",
    "synonyms": [
     "5 Times Daily"
    ]
   },
   {
    "code": "C98850",
    "decode": "Five Times Monthly",
    "submissionValue": "5 TIMES PER MONTH",
    "synonyms": [
     "5 Times Per Month"
    ]
   },
   {
    "code": "C85552",
    "decode": "Five Times Weekly",
    "submissionValue": "5 TIMES PER WEEK",
    "synonyms": [
     "5 Times Per Week"
    ]
   },
   {
    "code": "C98851",
    "decode": "Five Times Yearly",
    "submissionValue": "5 TIMES PER YEAR",
    "synonyms": [
     "5 Times Per Year"
    ]
   },
   {
    "code": "C98855",
    "decode": "Six Times Daily",
    "submissionValue": "6 TIMES PER DAY",
    "synonyms": [
     "6 Times Daily"
    ]
   },
   {
    "code": "C98856",
    "decode": "Six Times Monthly",
    "submissionValue": "6 TIMES PER MONTH",
    "synonyms": [
     "6 Times Per Month"
    ]
   },
   {
    "code": "C98857",
    "decode": "Six Times Weekly",
    "submissionValue": "6 TIMES PER WEEK",
    "synonyms": [
     "6 Times Per Week"
    ]
   },
   {
    "code": "C98858",
    "decode": "Six Times Yearly",
    "submissionValue": "6 TIMES PER YEAR",
    "synonyms": [
     "6 Times Per Year"
    ]
   },
   {
    "code": "C139180",
    "decode": "Seven Times Per Day",
    "submissionValue": "7 TIMES PER DAY",
    "synonyms": [
     "7 Times Daily"
    ]
   },
   {
    "code": "C98854",
    "decode": "Seven Times Weekly",
    "submissionValue": "7 TIMES PER WEEK",
    "synonyms": [
     "7 Times Per Week"
    ]
   },
   {
    "code": "C139181",
    "decode": "Eight Times Per Day",
    "submissionValue": "8 TIMES PER DAY",
    "synonyms": [
     "8 Times Daily"
    ]
   },
   {
    "code": "C139182",
    "decode": "Nine Times Per Day",
    "submissionValue": "9 TIMES PER DAY",
    "synonyms": [
     "9 Times Daily"
    ]
   },
   {
    "code": "C64636",
    "decode": "As Much as Desired",
    "submissionValue": "AD LIBITUM",
    "synonyms": [
     "Ad Libitum"
    ]
   },
   {
    "code": "C64496",
    "decode": "Twice Daily",
    "submissionValue": "BID",
    "synonyms": [
     "BD",
     "Twice per day"
    ]
   },
   {
    "code": "C71129",
    "decode": "Twice Per Month",
    "submissionValue": "BIM",
    "synonyms": [
     "Twice per month"
    ]
   },
   {
    "code": "C53279",
    "decode": "Continue",
    "submissionValue": "CONTINUOUS",
    "synonyms": [
     "Continuous"
    ]
   },
   {
    "code": "C189433",
    "decode": "Every Ten Weeks",
    "submissionValue": "EVERY 10 WEEKS",
    "synonyms": [
     "Every 10 Weeks",
     "Q10S"
    ]
   },
   {
    "code": "C189435",
    "decode": "Every Ten Years",
    "submissionValue": "EVERY 10 YEARS",
    "synonyms": []
   },
   {
    "code": "C161332",
    "decode": "Every Twelve Weeks",
    "submissionValue": "EVERY 12 WEEKS",
    "synonyms": [
     "Q12S"
    ]
   },
   {
    "code": "C189434",
    "decode": "Every Thirteen Weeks",
    "submissionValue": "EVERY 13 WEEKS",
    "synonyms": [
     "Every 13 Weeks",
     "Q13S"
    ]
   },
   {
    "code": "C161336",
    "decode": "Every Sixteen Weeks",
    "submissionValue": "EVERY 16 WEEKS",
    "synonyms": [
     "Q16S"
    ]
   },
   {
    "code": "C71127",
    "decode": "Every Two Weeks",
    "submissionValue": "EVERY 2 WEEKS",
    "synonyms": [
     "Every 2 weeks",
     "Q2S"
    ]
   },
   {
    "code": "C64535",
    "decode": "Every Three Weeks",
    "submissionValue": "EVERY 3 WEEKS",
    "synonyms": [
     "Every 3 weeks",
     "Q3S"
    ]
   },
   {
    "code": "C161333",
    "decode": "Every Three Years",
    "submissionValue": "EVERY 3 YEARS",
    "synonyms": []
   },
   {
    "code": "C64529",
    "decode": "Every Four Weeks",
    "submissionValue": "EVERY 4 WEEKS",
    "synonyms": [
     "Every 4 weeks",
     "Q4S"
    ]
   },
   {
    "code": "C189432",
    "decode": "Every Four Years",
    "submissionValue": "EVERY 4 YEARS",
    "synonyms": []
   },
   {
    "code": "C103390",
    "decode": "Every Five Weeks",
    "submissionValue": "EVERY 5 WEEKS",
    "synonyms": [
     "Every 5 weeks",
     "Q5S"
    ]
   },
   {
    "code": "C161334",
    "decode": "Every Five Years",
    "submissionValue": "EVERY 5 YEARS",
    "synonyms": []
   },
   {
    "code": "C89788",
    "decode": "Every Six Weeks",
    "submissionValue": "EVERY 6 WEEKS",
    "synonyms": [
     "Every 6 Weeks",
     "Q6S"
    ]
   },
   {
    "code": "C116149",
    "decode": "Every Seven Weeks",
    "submissionValue": "EVERY 7 WEEKS",
    "synonyms": [
     "Every 7 weeks",
     "Q7S"
    ]
   },
   {
    "code": "C103389",
    "decode": "Every Eight Weeks",
    "submissionValue": "EVERY 8 WEEKS",
    "synonyms": [
     "Every 8 weeks",
     "Q8S"
    ]
   },
   {
    "code": "C201379",
    "decode": "Every Eight Years",
    "submissionValue": "EVERY 8 YEARS",
    "synonyms": []
   },
   {
    "code": "C154484",
    "decode": "Every Afternoon",
    "submissionValue": "EVERY AFTERNOON",
    "synonyms": []
   },
   {
    "code": "C160957",
    "decode": "Every Evening",
    "submissionValue": "EVERY EVENING",
    "synonyms": []
   },
   {
    "code": "C67069",
    "decode": "Weekly",
    "submissionValue": "EVERY WEEK",
    "synonyms": [
     "Every week",
     "Per Week",
     "QS"
    ]
   },
   {
    "code": "C71325",
    "decode": "Intermittent",
    "submissionValue": "INTERMITTENT",
    "synonyms": [
     "Intermittent"
    ]
   },
   {
    "code": "C64954",
    "decode": "Infrequent",
    "submissionValue": "OCCASIONAL",
    "synonyms": [
     "Occasional"
    ]
   },
   {
    "code": "C64576",
    "decode": "Once",
    "submissionValue": "ONCE",
    "synonyms": []
   },
   {
    "code": "C74924",
    "decode": "Per Year",
    "submissionValue": "PA",
    "synonyms": [
     "/Year",
     "Every Year",
     "Per Annum",
     "Per Year"
    ]
   },
   {
    "code": "C64499",
    "decode": "As Needed",
    "submissionValue": "PRN",
    "synonyms": [
     "As needed"
    ]
   },
   {
    "code": "C64500",
    "decode": "Every Ten Hours",
    "submissionValue": "Q10H",
    "synonyms": [
     "Every 10 hours"
    ]
   },
   {
    "code": "C64501",
    "decode": "Every Eleven Hours",
    "submissionValue": "Q11H",
    "synonyms": [
     "Every 11 hours"
    ]
   },
   {
    "code": "C64502",
    "decode": "Every Twelve Hours",
    "submissionValue": "Q12H",
    "synonyms": [
     "Every 12 hours"
    ]
   },
   {
    "code": "C64503",
    "decode": "Every Thirteen Hours",
    "submissionValue": "Q13H",
    "synonyms": [
     "Every 13 hours"
    ]
   },
   {
    "code": "C64504",
    "decode": "Every Fourteen Hours",
    "submissionValue": "Q14H",
    "synonyms": [
     "Every 14 hours"
    ]
   },
   {
    "code": "C64505",
    "decode": "Every Fifteen Hours",
    "submissionValue": "Q15H",
    "synonyms": [
     "Every 15 hours"
    ]
   },
   {
    "code": "C64506",
    "decode": "Every Sixteen Hours",
    "submissionValue": "Q16H",
    "synonyms": [
     "Every 16 hours"
    ]
   },
   {
    "code": "C64507",
    "decode": "Every Seventeen Hours",
    "submissionValue": "Q17H",
    "synonyms": [
     "Every 17 hours"
    ]
   },
   {
    "code": "C64508",
    "decode": "Every Eighteen Hours",
    "submissionValue": "Q18H",
    "synonyms": [
     "Every 18 hours"
    ]
   },
   {
    "code": "C64509",
    "decode": "Every Nineteen Hours",
    "submissionValue": "Q19H",
    "synonyms": [
     "Every 19 hours"
    ]
   },
   {
    "code": "C64511",
    "decode": "Every Twenty Hours",
    "submissionValue": "Q20H",
    "synonyms": [
     "Every 20 hours"
    ]
   },
   {
    "code": "C64512",
    "decode": "Every Twenty-One Hours",
    "submissionValue": "Q21H",
    "synonyms": [
     "Every 21 hours"
    ]
   },
   {
    "code": "C64513",
    "decode": "Every Twenty-Two Hours",
    "submissionValue": "Q22H",
    "synonyms": [
     "Every 22 hours"
    ]
   },
   {
    "code": "C64514",
    "decode": "Every Twenty-Three Hours",
    "submissionValue": "Q23H",
    "synonyms": [
     "Every 23 hours"
    ]
   },
   {
    "code": "C64515",
    "decode": "Every Twenty-Four Hours",
    "submissionValue": "Q24H",
    "synonyms": [
     "Every 24 hours"
    ]
   },
   {
    "code": "C64516",
    "decode": "Every Two Hours",
    "submissionValue": "Q2H",
    "synonyms": [
     "Every 2 hours"
    ]
   },
   {
    "code": "C64536",
    "decode": "Every Two Months",
    "submissionValue": "Q2M",
    "synonyms": [
     "Every two months"
    ]
   },
   {
    "code": "C89791",
    "decode": "Every Thirty-six Hours",
    "submissionValue": "Q36H",
    "synonyms": [
     "Every 36 Hours"
    ]
   },
   {
    "code": "C64533",
    "decode": "Every Three Days",
    "submissionValue": "Q3D",
    "synonyms": [
     "Every 3 days"
    ]
   },
   {
    "code": "C64517",
    "decode": "Every Three Hours",
    "submissionValue": "Q3H",
    "synonyms": [
     "Every 3 hours"
    ]
   },
   {
    "code": "C64537",
    "decode": "Every Three Months",
    "submissionValue": "Q3M",
    "synonyms": [
     "Every 3 months"
    ]
   },
   {
    "code": "C139183",
    "decode": "Every Forty-Five Minutes",
    "submissionValue": "Q45MIN",
    "synonyms": [
     "Every 45 Minutes"
    ]
   },
   {
    "code": "C89790",
    "decode": "Every Forty-eight Hours",
    "submissionValue": "Q48H",
    "synonyms": [
     "Every 48 Hours"
    ]
   },
   {
    "code": "C64534",
    "decode": "Every Four Days",
    "submissionValue": "Q4D",
    "synonyms": [
     "Every 4 days"
    ]
   },
   {
    "code": "C64518",
    "decode": "Every Four Hours",
    "submissionValue": "Q4H",
    "synonyms": [
     "Every 4 hours"
    ]
   },
   {
    "code": "C64538",
    "decode": "Every Four Months",
    "submissionValue": "Q4M",
    "synonyms": [
     "Every 4 months"
    ]
   },
   {
    "code": "C71124",
    "decode": "Every Five Days",
    "submissionValue": "Q5D",
    "synonyms": [
     "Every 5 days"
    ]
   },
   {
    "code": "C64519",
    "decode": "Every Five Hours",
    "submissionValue": "Q5H",
    "synonyms": [
     "Every 5 hours"
    ]
   },
   {
    "code": "C161335",
    "decode": "Every Six Days",
    "submissionValue": "Q6D",
    "synonyms": []
   },
   {
    "code": "C64520",
    "decode": "Every Six Hours",
    "submissionValue": "Q6H",
    "synonyms": [
     "Every 6 hours"
    ]
   },
   {
    "code": "C89789",
    "decode": "Every Six Months",
    "submissionValue": "Q6M",
    "synonyms": [
     "Every 6 Months"
    ]
   },
   {
    "code": "C174288",
    "decode": "Every Seventy Two Hours",
    "submissionValue": "Q72H",
    "synonyms": [
     "Every 72 hours"
    ]
   },
   {
    "code": "C139177",
    "decode": "Every Seven Days",
    "submissionValue": "Q7D",
    "synonyms": [
     "Every 7 Days"
    ]
   },
   {
    "code": "C64521",
    "decode": "Every Seven Hours",
    "submissionValue": "Q7H",
    "synonyms": [
     "Every 7 hours"
    ]
   },
   {
    "code": "C64523",
    "decode": "Every Eight Hours",
    "submissionValue": "Q8H",
    "synonyms": [
     "Every 8 hours"
    ]
   },
   {
    "code": "C189436",
    "decode": "Every Ninety-Six Hours",
    "submissionValue": "Q96H",
    "synonyms": [
     "Every 96 Hours"
    ]
   },
   {
    "code": "C64524",
    "decode": "Every Nine Hours",
    "submissionValue": "Q9H",
    "synonyms": [
     "Every 9 hours"
    ]
   },
   {
    "code": "C64595",
    "decode": "QAM",
    "submissionValue": "QAM",
    "synonyms": [
     "Every Morning"
    ]
   },
   {
    "code": "C25473",
    "decode": "Daily",
    "submissionValue": "QD",
    "synonyms": [
     "/day",
     "Daily",
     "Per Day"
    ]
   },
   {
    "code": "C64510",
    "decode": "Every Hour",
    "submissionValue": "QH",
    "synonyms": [
     "Every hour"
    ]
   },
   {
    "code": "C64593",
    "decode": "Hour of Sleep",
    "submissionValue": "QHS",
    "synonyms": []
   },
   {
    "code": "C64530",
    "decode": "Four Times Daily",
    "submissionValue": "QID",
    "synonyms": [
     "4 times per day"
    ]
   },
   {
    "code": "C64498",
    "decode": "Monthly",
    "submissionValue": "QM",
    "synonyms": [
     "Every Month",
     "Per Month"
    ]
   },
   {
    "code": "C139178",
    "decode": "Every Night",
    "submissionValue": "QN",
    "synonyms": []
   },
   {
    "code": "C64525",
    "decode": "Every Other Day",
    "submissionValue": "QOD",
    "synonyms": [
     "Every other day",
     "Every Second Day",
     "Every Two Days",
     "Q2D"
    ]
   },
   {
    "code": "C64596",
    "decode": "QPM",
    "submissionValue": "QPM",
    "synonyms": []
   },
   {
    "code": "C156502",
    "decode": "Thrice",
    "submissionValue": "THRICE",
    "synonyms": []
   },
   {
    "code": "C64527",
    "decode": "Three Times Daily",
    "submissionValue": "TID",
    "synonyms": [
     "3 times per day"
    ]
   },
   {
    "code": "C65134",
    "decode": "Twice",
    "submissionValue": "TWICE",
    "synonyms": []
   },
   {
    "code": "C17998",
    "decode": "Unknown",
    "submissionValue": "UNKNOWN",
    "synonyms": [
     "U",
     "UNK",
     "Unknown"
    ]
   }
  ]
 },
 "C71148": {
  "effectiveDate": "2026-03-27",
  "extensible": true,
  "name": "Position",
  "preferredTerm": "CDISC SDTM Body Position Terminology",
  "terms": [
   {
    "code": "C77532",
    "decode": "Recumbent Position",
    "submissionValue": "DECUBITUS",
    "synonyms": [
     "Recumbent"
    ]
   },
   {
    "code": "C62173",
    "decode": "Fowler's Position",
    "submissionValue": "FOWLERS",
    "synonyms": [
     "Fowlers"
    ]
   },
   {
    "code": "C100758",
    "decode": "Lateral Decubitus Position",
    "submissionValue": "LATERAL DECUBITUS",
    "synonyms": [
     "Lateral Decubitus"
    ]
   },
   {
    "code": "C62172",
    "decode": "Left Lateral Decubitus Position",
    "submissionValue": "LEFT LATERAL DECUBITUS",
    "synonyms": [
     "Left lateral decubitus"
    ]
   },
   {
    "code": "C62165",
    "decode": "Prone Position",
    "submissionValue": "PRONE",
    "synonyms": [
     "Prone"
    ]
   },
   {
    "code": "C62169",
    "decode": "Reverse Trendelenburg",
    "submissionValue": "REVERSE TRENDELENBURG",
    "synonyms": [
     "Reverse Trendelenburg"
    ]
   },
   {
    "code": "C62171",
    "decode": "Right Lateral Decubitus Position",
    "submissionValue": "RIGHT LATERAL DECUBITUS",
    "synonyms": [
     "Right lateral decubitus"
    ]
   },
   {
    "code": "C62174",
    "decode": "Semi-Fowler's Position",
    "submissionValue": "SEMI-FOWLERS",
    "synonyms": [
     "Semi-Fowlers"
    ]
   },
   {
    "code": "C111310",
    "decode": "Semi-Recumbent",
    "submissionValue": "SEMI-RECUMBENT",
    "synonyms": [
     "Semi-Supine"
    ]
   },
   {
    "code": "C62122",
    "decode": "Sitting",
    "submissionValue": "SITTING",
    "synonyms": [
     "Sitting"
    ]
   },
   {
    "code": "C150885",
    "decode": "Sitting With Legs Dependent",
    "submissionValue": "SITTING, LEGS DEPENDENT",
    "synonyms": [
     "Sitting With Legs Dangling"
    ]
   },
   {
    "code": "C92604",
    "decode": "Patient in Body Sling",
    "submissionValue": "SLING",
    "synonyms": [
     "Sling"
    ]
   },
   {
    "code": "C62166",
    "decode": "Standing",
    "submissionValue": "STANDING",
    "synonyms": [
     "Orthostatic",
     "Standing"
    ]
   },
   {
    "code": "C174357",
    "decode": "Standing, Bent Forward",
    "submissionValue": "STANDING, BENT FORWARD",
    "synonyms": []
   },
   {
    "code": "C62167",
    "decode": "Supine Position",
    "submissionValue": "SUPINE",
    "synonyms": [
     "Supine"
    ]
   },
   {
    "code": "C62168",
    "decode": "Trendelenburg",
    "submissionValue": "TRENDELENBURG",
    "synonyms": [
     "Trendelenburg"
    ]
   },
   {
    "code": "C90480",
    "decode": "Unconstrained Body Movement",
    "submissionValue": "UNCONSTRAINED",
    "synonyms": [
     "Unconstrained"
    ]
   }
  ]
 },
 "C71620": {
  "effectiveDate": "2026-03-27",
  "extensible": true,
  "name": "Unit",
  "preferredTerm": "CDISC SDTM Unit of Measure Terminology",
  "terms": [
   {
    "code": "C117963",
    "decode": "Percent Inhibition",
    "submissionValue": "% INHIBITION",
    "synonyms": [
     "Percent Inhibition"
    ]
   },
   {
    "code": "C25613",
    "decode": "Percentage",
    "submissionValue": "%",
    "synonyms": [
     "Percentage"
    ]
   },
   {
    "code": "C48571",
    "decode": "Percent Volume per Volume",
    "submissionValue": "%(v/v)",
    "synonyms": [
     "Percent Volume per Volume",
     "vol%"
    ]
   },
   {
    "code": "C48527",
    "decode": "Percent Mass per Volume",
    "submissionValue": "%(w/v)",
    "synonyms": [
     "Percent Weight per Volume"
    ]
   },
   {
    "code": "C48528",
    "decode": "Percent Mass per Mass",
    "submissionValue": "%(w/w)",
    "synonyms": [
     "Percent Weight per Weight"
    ]
   },
   {
    "code": "C187981",
    "decode": "Percentage times Minute per Hour",
    "submissionValue": "%*min/h",
    "synonyms": [
     "min*%/h"
    ]
   },
   {
    "code": "C114240",
    "decode": "Percent per Minute",
    "submissionValue": "%/min",
    "synonyms": [
     "Percent per Minute"
    ]
   },
   {
    "code": "C163560",
    "decode": "Percent per Second",
    "submissionValue": "%/s",
    "synonyms": [
     "Percent per Second"
    ]
   },
   {
    "code": "C201486",
    "decode": "Millimeter Mercury times Minute per Liter times Square Meter",
    "submissionValue": "(mmHg*min/L)*m2",
    "synonyms": [
     "mmHg*min*m2/L"
    ]
   },
   {
    "code": "C158699",
    "decode": "Per 10 High Powered Fields",
    "submissionValue": "/10 HPFs",
    "synonyms": [
     "Per 10 High Powered Fields"
    ]
   },
   {
    "code": "C202453",
    "decode": "Per 100 Cells",
    "submissionValue": "/100 Cells",
    "synonyms": []
   },
   {
    "code": "C209700",
    "decode": "per 100 Enterocytes",
    "submissionValue": "/100 Enterocytes",
    "synonyms": []
   },
   {
    "code": "C102695",
    "decode": "Per 100 High Powered Fields",
    "submissionValue": "/100 HPFs",
    "synonyms": [
     "Per 100 High Powered Fields"
    ]
   },
   {
    "code": "C191358",
    "decode": "Per 100 Red Blood Cells",
    "submissionValue": "/100 RBC",
    "synonyms": []
   },
   {
    "code": "C67219",
    "decode": "Per 100 White Blood Cells",
    "submissionValue": "/100 WBC",
    "synonyms": [
     "Per 100 White Blood Cells"
    ]
   },
   {
    "code": "C199995",
    "decode": "Per 100x Field",
    "submissionValue": "/100x FIELD",
    "synonyms": [
     "per 100x Field"
    ]
   },
   {
    "code": "C191359",
    "decode": "Per Thousand Red Blood Cells",
    "submissionValue": "/10^3 RBC",
    "synonyms": [
     "/1000 RBC"
    ]
   },
   {
    "code": "C123634",
    "decode": "Per Thousand",
    "submissionValue": "/10^3",
    "synonyms": []
   },
   {
    "code": "C135515",
    "decode": "Per Ten Thousand",
    "submissionValue": "/10^4",
    "synonyms": []
   },
   {
    "code": "C135516",
    "decode": "Per Hundred Thousand",
    "submissionValue": "/10^5",
    "synonyms": []
   },
   {
    "code": "C184719",
    "decode": "Per Million",
    "submissionValue": "/10^6",
    "synonyms": []
   },
   {
    "code": "C189646",
    "decode": "Per Two Square Millimeters",
    "submissionValue": "/2 mm2",
    "synonyms": []
   },
   {
    "code": "C132472",
    "decode": "Per 200 High Powered Fields",
    "submissionValue": "/200 HPFs",
    "synonyms": [
     "Per 200 High Powered Fields"
    ]
   },
   {
    "code": "C132473",
    "decode": "Per 2000 Red Blood Cells",
    "submissionValue": "/2000 RBC",
    "synonyms": [
     "/2x10^3 RBC"
    ]
   },
   {
    "code": "C132474",
    "decode": "Per 2500 White Blood Cells",
    "submissionValue": "/2500 WBC",
    "synonyms": []
   },
   {
    "code": "C122197",
    "decode": "per 4.0 Milliliters",
    "submissionValue": "/4.0 mL",
    "synonyms": []
   },
   {
    "code": "C132475",
    "decode": "Per 40 High Powered Fields",
    "submissionValue": "/40 HPFs",
    "synonyms": [
     "Per 40 High Powered Fields"
    ]
   },
   {
    "code": "C191355",
    "decode": "Per 400 Cells",
    "submissionValue": "/400 Cells",
    "synonyms": []
   },
   {
    "code": "C202452",
    "decode": "Per 50 Cells",
    "submissionValue": "/50 Cells",
    "synonyms": []
   },
   {
    "code": "C132476",
    "decode": "Per 500 White Blood Cells",
    "submissionValue": "/500 WBC",
    "synonyms": []
   },
   {
    "code": "C170636",
    "decode": "Per 50,000 White Blood Cells",
    "submissionValue": "/5x10^4 WBC",
    "synonyms": []
   },
   {
    "code": "C122198",
    "decode": "per 7.5 Milliliters",
    "submissionValue": "/7.5 mL",
    "synonyms": []
   },
   {
    "code": "C198368",
    "decode": "Per Animal",
    "submissionValue": "/animal",
    "synonyms": [
     "Per Animal"
    ]
   },
   {
    "code": "C202454",
    "decode": "Per Cell",
    "submissionValue": "/Cell",
    "synonyms": []
   },
   {
    "code": "C204709",
    "decode": "Per Cubic Centimeter",
    "submissionValue": "/cm3",
    "synonyms": []
   },
   {
    "code": "C135517",
    "decode": "Per Centimeter of Water",
    "submissionValue": "/cmH2O",
    "synonyms": []
   },
   {
    "code": "C25473",
    "decode": "Daily",
    "submissionValue": "/day",
    "synonyms": [
     "/day",
     "Daily",
     "Per Day"
    ]
   },
   {
    "code": "C209701",
    "decode": "Per Exome",
    "submissionValue": "/EXOME",
    "synonyms": [
     "/Whole Exome",
     "/Whole-Exome"
    ]
   },
   {
    "code": "C198369",
    "decode": "Per Gram",
    "submissionValue": "/g",
    "synonyms": [
     "Per Gram"
    ]
   },
   {
    "code": "C66966",
    "decode": "Per Hour",
    "submissionValue": "/h",
    "synonyms": [
     "Per Hour"
    ]
   },
   {
    "code": "C96619",
    "decode": "Per High Powered Field",
    "submissionValue": "/HPF",
    "synonyms": [
     "Per High Powered Field"
    ]
   },
   {
    "code": "C120844",
    "decode": "Per Kilogram",
    "submissionValue": "/kg",
    "synonyms": []
   },
   {
    "code": "C96620",
    "decode": "Per Low Powered Field",
    "submissionValue": "/LPF",
    "synonyms": [
     "Per Low Powered Field"
    ]
   },
   {
    "code": "C130187",
    "decode": "Per Large Square Neubauer Chamber",
    "submissionValue": "/LSQN",
    "synonyms": [
     "/Large Square Neubauer"
    ]
   },
   {
    "code": "C176387",
    "decode": "Per Megabase Pair",
    "submissionValue": "/MBP",
    "synonyms": [
     "/10^6 BP",
     "/Mb",
     "/Mbp",
     "Per Megabase Pair"
    ]
   },
   {
    "code": "C66967",
    "decode": "Per Minute",
    "submissionValue": "/min",
    "synonyms": []
   },
   {
    "code": "C130188",
    "decode": "Per Millimeter",
    "submissionValue": "/mm",
    "synonyms": []
   },
   {
    "code": "C122199",
    "decode": "per Square Millimeter",
    "submissionValue": "/mm2",
    "synonyms": []
   },
   {
    "code": "C64498",
    "decode": "Monthly",
    "submissionValue": "/month",
    "synonyms": [
     "Every Month",
     "Per Month"
    ]
   },
   {
    "code": "C161490",
    "decode": "Per Millisecond",
    "submissionValue": "/ms",
    "synonyms": [
     "1/ms",
     "ms^-1",
     "Reciprocal of Millisecond"
    ]
   },
   {
    "code": "C204701",
    "decode": "Per Plate",
    "submissionValue": "/PLATE",
    "synonyms": [
     "Per Culture Plate",
     "Per Plate"
    ]
   },
   {
    "code": "C66965",
    "decode": "Per Second",
    "submissionValue": "/s",
    "synonyms": [
     "/sec"
    ]
   },
   {
    "code": "C214759",
    "decode": "per Square Micrometer",
    "submissionValue": "/um2",
    "synonyms": []
   },
   {
    "code": "C105516",
    "decode": "Per Visual Field",
    "submissionValue": "/VF",
    "synonyms": [
     "Per Visual Field"
    ]
   },
   {
    "code": "C214758",
    "decode": "Per Culture Plate Well",
    "submissionValue": "/WELL",
    "synonyms": [
     "/Well",
     "Per Culture Plate Well",
     "Per Well"
    ]
   },
   {
    "code": "C67069",
    "decode": "Weekly",
    "submissionValue": "/wk",
    "synonyms": [
     "Every week",
     "Per Week",
     "QS"
    ]
   },
   {
    "code": "C127804",
    "decode": "One per Second Times Kilopascal",
    "submissionValue": "1/(s*kPa)",
    "synonyms": [
     "/(s*kPa)"
    ]
   },
   {
    "code": "C199992",
    "decode": "Ten Copies per Milliliter",
    "submissionValue": "10 copies/mL",
    "synonyms": [
     "10^1 copies/mL",
     "Ten Copies per Milliliter"
    ]
   },
   {
    "code": "C199993",
    "decode": "Ten International Units per Milliliter",
    "submissionValue": "10 IU/mL",
    "synonyms": [
     "10^1 IU/mL",
     "Ten International Units per Milliliter"
    ]
   },
   {
    "code": "C199994",
    "decode": "Hundred Copies per Milliliter",
    "submissionValue": "100 copies/mL",
    "synonyms": [
     "10^2 copies/mL",
     "Hundred copies per Milliliter"
    ]
   },
   {
    "code": "C71185",
    "decode": "100 International Units per Milliliter",
    "submissionValue": "100 IU/mL",
    "synonyms": [
     "100 International units/Milliliter",
     "10^2 IU/mL",
     "10^5 IU/L"
    ]
   },
   {
    "code": "C198370",
    "decode": "Ten Billion Copies per Milliliter",
    "submissionValue": "10^10 copies/mL",
    "synonyms": [
     "Ten Billion Copies per Milliliter"
    ]
   },
   {
    "code": "C198371",
    "decode": "Ten Billion International Units per Milliliter",
    "submissionValue": "10^10 IU/mL",
    "synonyms": [
     "Ten Billion International Units per Milliliter"
    ]
   },
   {
    "code": "C198372",
    "decode": "Ten Billion Viral Particles per Dose",
    "submissionValue": "10^10 vp/dose",
    "synonyms": [
     "10^10 Viral Particles/dose"
    ]
   },
   {
    "code": "C198373",
    "decode": "Ten Billion Viral Particles per Milliliter",
    "submissionValue": "10^10 vp/mL",
    "synonyms": [
     "10^10 Viral Particles/mL"
    ]
   },
   {
    "code": "C105517",
    "decode": "Ten Billion Per Liter",
    "submissionValue": "10^10/L",
    "synonyms": [
     "10^4/mm3",
     "10^4/uL",
     "10^7/mL"
    ]
   },
   {
    "code": "C105488",
    "decode": "Hundred Billion Per Liter",
    "submissionValue": "10^11/L",
    "synonyms": [
     "10^5/mm3",
     "10^5/uL",
     "10^8/mL"
    ]
   },
   {
    "code": "C105518",
    "decode": "Tera International Unit Per Liter",
    "submissionValue": "10^12 IU/L",
    "synonyms": [
     "Tera International Unit per Liter",
     "TIU/L"
    ]
   },
   {
    "code": "C67308",
    "decode": "Million per Microliter",
    "submissionValue": "10^12/L",
    "synonyms": [
     "/pL",
     "1/pL",
     "10^6/mm3",
     "10^6/uL",
     "M/uL",
     "Mill/mcL",
     "T/L",
     "Tera/L",
     "TI/L"
    ]
   },
   {
    "code": "C68895",
    "decode": "Thousand Colony Forming Units",
    "submissionValue": "10^3 CFU",
    "synonyms": [
     "Thousand CFU",
     "Thousand Colony Forming Units"
    ]
   },
   {
    "code": "C68899",
    "decode": "Thousand Colony Forming Units per Gram",
    "submissionValue": "10^3 CFU/g",
    "synonyms": [
     "Thousand CFU/g",
     "Thousand Colony Forming Units per Gram"
    ]
   },
   {
    "code": "C68903",
    "decode": "Thousand Colony Forming Units per Milliliter",
    "submissionValue": "10^3 CFU/mL",
    "synonyms": [
     "Thousand CFU/mL",
     "Thousand Colony Forming Units per Milliliter"
    ]
   },
   {
    "code": "C100897",
    "decode": "Thousand Copies per Milliliter",
    "submissionValue": "10^3 copies/mL",
    "synonyms": []
   },
   {
    "code": "C98788",
    "decode": "Thousand DNA Copies per Milliliter",
    "submissionValue": "10^3 DNA copies/mL",
    "synonyms": []
   },
   {
    "code": "C198374",
    "decode": "Thousand International Units per Milliliter",
    "submissionValue": "10^3 IU/mL",
    "synonyms": [
     "Thousand International Units per Milliliter"
    ]
   },
   {
    "code": "C71187",
    "decode": "Thousand Organisms",
    "submissionValue": "10^3 organisms",
    "synonyms": [
     "Thousand Organisms"
    ]
   },
   {
    "code": "C71190",
    "decode": "Thousand Organisms per Gram",
    "submissionValue": "10^3 organisms/g",
    "synonyms": [
     "Thousand Organisms per Gram",
     "Thousand Organisms/g"
    ]
   },
   {
    "code": "C71195",
    "decode": "Thousand Organisms per Milliliter",
    "submissionValue": "10^3 organisms/mL",
    "synonyms": [
     "Thousand Organisms per Milliliter",
     "Thousand Organisms/mL"
    ]
   },
   {
    "code": "C98790",
    "decode": "Thousand RNA Copies per Milliliter",
    "submissionValue": "10^3 RNA copies/mL",
    "synonyms": []
   },
   {
    "code": "C187975",
    "decode": "Thousand Therapeutic Cells Dosing Unit",
    "submissionValue": "10^3 Therapeutic Cells",
    "synonyms": []
   },
   {
    "code": "C98789",
    "decode": "Thousand per High Powered Field",
    "submissionValue": "10^3/hpf",
    "synonyms": []
   },
   {
    "code": "C105519",
    "decode": "Thousand Per Liter",
    "submissionValue": "10^3/L",
    "synonyms": [
     "/mL",
     "1/mL"
    ]
   },
   {
    "code": "C158293",
    "decode": "Ten Thousand Colony Forming Units",
    "submissionValue": "10^4 CFU",
    "synonyms": [
     "Ten Thousand CFU",
     "Ten Thousand Colony Forming Units"
    ]
   },
   {
    "code": "C166095",
    "decode": "Ten Thousand Colony Forming Units Per Liter",
    "submissionValue": "10^4 CFU/mL",
    "synonyms": [
     "Ten Thousand CFU/mL",
     "Ten Thousand Colony Forming Units per Milliliter"
    ]
   },
   {
    "code": "C198375",
    "decode": "Ten Thousand Copies per Milliliter",
    "submissionValue": "10^4 copies/mL",
    "synonyms": [
     "Ten Thousand Copies per Milliliter"
    ]
   },
   {
    "code": "C198376",
    "decode": "Ten Thousand International Units per Milliliter",
    "submissionValue": "10^4 IU/mL",
    "synonyms": [
     "Ten Thousand International Units per Milliliter"
    ]
   },
   {
    "code": "C98787",
    "decode": "Ten Thousand per High Powered Field",
    "submissionValue": "10^4/hpf",
    "synonyms": []
   },
   {
    "code": "C73771",
    "decode": "Thousand per Deciliter",
    "submissionValue": "10^4/L",
    "synonyms": []
   },
   {
    "code": "C198377",
    "decode": "Hundred Thousand Colony Forming Units",
    "submissionValue": "10^5 CFU",
    "synonyms": [
     "Hundred Thousand CFU",
     "Hundred Thousand Colony Forming Units"
    ]
   },
   {
    "code": "C181551",
    "decode": "Hundred Thousand Colony Forming Units per Milliliter",
    "submissionValue": "10^5 CFU/mL",
    "synonyms": [
     "Hundred Thousand CFU/mL",
     "Hundred Thousand Colony Forming Units per Milliliter"
    ]
   },
   {
    "code": "C198378",
    "decode": "Hundred Thousand Copies per Milliliter",
    "submissionValue": "10^5 copies/mL",
    "synonyms": [
     "Hundred Thousand copies per Milliliter"
    ]
   },
   {
    "code": "C198379",
    "decode": "Hundred Thousand International Units",
    "submissionValue": "10^5 IU/mL",
    "synonyms": [
     "Hundred Thousand International Units"
    ]
   },
   {
    "code": "C187971",
    "decode": "Hundred Thousand Therapeutic Cells Dosing Unit",
    "submissionValue": "10^5 Therapeutic Cells",
    "synonyms": []
   },
   {
    "code": "C98743",
    "decode": "Hundred Thousand per High Powered Field",
    "submissionValue": "10^5/hpf",
    "synonyms": []
   },
   {
    "code": "C184715",
    "decode": "Hundred Thousand Per Kilogram",
    "submissionValue": "10^5/kg",
    "synonyms": [
     "10^2/g",
     "10^5/kg"
    ]
   },
   {
    "code": "C105490",
    "decode": "Hundred Thousand Per Liter",
    "submissionValue": "10^5/L",
    "synonyms": [
     "10^2/mL"
    ]
   },
   {
    "code": "C68896",
    "decode": "Million Colony Forming Units",
    "submissionValue": "10^6 CFU",
    "synonyms": [
     "Million CFU",
     "Million Colony Forming Units"
    ]
   },
   {
    "code": "C68900",
    "decode": "Million Colony Forming Units per Gram",
    "submissionValue": "10^6 CFU/g",
    "synonyms": [
     "Million CFU/g",
     "Million Colony Forming Units per Gram"
    ]
   },
   {
    "code": "C68904",
    "decode": "Million Colony Forming Units per Milliliter",
    "submissionValue": "10^6 CFU/mL",
    "synonyms": [
     "Million CFU/mL",
     "Million Colony Forming Units per Milliliter"
    ]
   },
   {
    "code": "C100898",
    "decode": "Million Copies per Milliliter",
    "submissionValue": "10^6 copies/mL",
    "synonyms": []
   },
   {
    "code": "C98756",
    "decode": "Million DNA Copies per Milliliter",
    "submissionValue": "10^6 DNA copies/mL",
    "synonyms": []
   },
   {
    "code": "C67335",
    "decode": "Million International Units",
    "submissionValue": "10^6 IU",
    "synonyms": [
     "Million International Units",
     "Million IU"
    ]
   },
   {
    "code": "C98757",
    "decode": "Million International Units per Milliliter",
    "submissionValue": "10^6 IU/mL",
    "synonyms": []
   },
   {
    "code": "C71188",
    "decode": "Million Organisms",
    "submissionValue": "10^6 organisms",
    "synonyms": [
     "Million Organisms"
    ]
   },
   {
    "code": "C71191",
    "decode": "Million Organisms per Gram",
    "submissionValue": "10^6 organisms/g",
    "synonyms": [
     "Million Organisms per Gram",
     "Million Organisms/g"
    ]
   },
   {
    "code": "C71193",
    "decode": "Million Organisms per Milligram",
    "submissionValue": "10^6 organisms/mg",
    "synonyms": [
     "Million Organisms per Milligram",
     "Million Organisms/mg"
    ]
   },
   {
    "code": "C71196",
    "decode": "Million Organisms per Milliliter",
    "submissionValue": "10^6 organisms/mL",
    "synonyms": [
     "Million Organisms per Milliliter",
     "Million Organisms/mL"
    ]
   },
   {
    "code": "C67268",
    "decode": "Million Plaque Forming Units",
    "submissionValue": "10^6 PFU",
    "synonyms": [
     "One Million PFU",
     "One Million Plaque Forming Units"
    ]
   },
   {
    "code": "C98760",
    "decode": "Million RNA Copies per Milliliter",
    "submissionValue": "10^6 RNA copies/mL",
    "synonyms": []
   },
   {
    "code": "C150415",
    "decode": "Million Tissue Culture Infectious Dose 50%",
    "submissionValue": "10^6 TCID 50/dose",
    "synonyms": [
     "10^6 50 Percent Tissue Culture Infective Dose per Dose"
    ]
   },
   {
    "code": "C187973",
    "decode": "Million Therapeutic Cells Dosing Unit",
    "submissionValue": "10^6 Therapeutic Cells",
    "synonyms": []
   },
   {
    "code": "C67310",
    "decode": "Million Units",
    "submissionValue": "10^6 U",
    "synonyms": [
     "Million U",
     "Million Units"
    ]
   },
   {
    "code": "C130189",
    "decode": "Million Per Ejaculate Unit",
    "submissionValue": "10^6/Ejaculate U",
    "synonyms": []
   },
   {
    "code": "C98758",
    "decode": "Million per Gram",
    "submissionValue": "10^6/g",
    "synonyms": [
     "/ug",
     "1/ug",
     "10^3/mg",
     "10^9/kg"
    ]
   },
   {
    "code": "C98759",
    "decode": "Million per High Powered Field",
    "submissionValue": "10^6/hpf",
    "synonyms": []
   },
   {
    "code": "C198380",
    "decode": "Million per Kilogram",
    "submissionValue": "10^6/kg",
    "synonyms": [
     "10^3/g"
    ]
   },
   {
    "code": "C67452",
    "decode": "Thousand per Milliliter",
    "submissionValue": "10^6/L",
    "synonyms": [
     "/mm3",
     "/uL",
     "1/mm3",
     "1/uL",
     "10^3/mL",
     "M/L",
     "Mega/L"
    ]
   },
   {
    "code": "C158294",
    "decode": "Ten Million Colony Forming Units",
    "submissionValue": "10^7 CFU",
    "synonyms": [
     "Ten Million CFU",
     "Ten Million Colony Forming Units"
    ]
   },
   {
    "code": "C166096",
    "decode": "Ten Million Colony Forming Units Per Liter",
    "submissionValue": "10^7 CFU/mL",
    "synonyms": [
     "Ten Million CFU/mL",
     "Ten Million Colony Forming Units per Milliliter"
    ]
   },
   {
    "code": "C198381",
    "decode": "Ten Million Copies per Milliliter",
    "submissionValue": "10^7 copies/mL",
    "synonyms": [
     "Ten Million copies per Milliliter"
    ]
   },
   {
    "code": "C198382",
    "decode": "Ten Million International Units per Milliliter",
    "submissionValue": "10^7 IU/mL",
    "synonyms": [
     "Ten Million International Units per Milliliter"
    ]
   },
   {
    "code": "C67265",
    "decode": "Ten Million Plaque Forming Units",
    "submissionValue": "10^7 PFU",
    "synonyms": [
     "Ten Million PFU",
     "Ten Million Plaque Forming Units"
    ]
   },
   {
    "code": "C150416",
    "decode": "Ten Million Tissue Culture Infectious Dose 50%",
    "submissionValue": "10^7 TCID 50/dose",
    "synonyms": [
     "10^7 50 Percent Tissue Culture Infective Dose per Dose"
    ]
   },
   {
    "code": "C184717",
    "decode": "Ten Million Per Kilogram",
    "submissionValue": "10^7/kg",
    "synonyms": [
     "10/mg",
     "10^4/g"
    ]
   },
   {
    "code": "C98786",
    "decode": "Ten Million per Liter",
    "submissionValue": "10^7/L",
    "synonyms": [
     "10^6/dL"
    ]
   },
   {
    "code": "C198383",
    "decode": "Hundred Million Colony Forming Units",
    "submissionValue": "10^8 CFU",
    "synonyms": [
     "Hundred Million CFU",
     "Hundred Million Colony Forming Units"
    ]
   },
   {
    "code": "C198384",
    "decode": "One Hundred Million Copies per Milliliter",
    "submissionValue": "10^8 copies/mL",
    "synonyms": [
     "One Hundred Million Copies per Milliliter"
    ]
   },
   {
    "code": "C156119",
    "decode": "Hundred Million International Units",
    "submissionValue": "10^8 IU",
    "synonyms": [
     "One Hundred Million International Units",
     "One Hundred Million IU"
    ]
   },
   {
    "code": "C198385",
    "decode": "One Hundred Million International Units per Milliliter",
    "submissionValue": "10^8 IU/mL",
    "synonyms": [
     "One Hundred Million International Units per Milliliter"
    ]
   },
   {
    "code": "C67266",
    "decode": "Hundred Million Plaque Forming Units",
    "submissionValue": "10^8 PFU",
    "synonyms": [
     "Hundred Million PFU",
     "Hundred Million Plaque Forming Units"
    ]
   },
   {
    "code": "C150417",
    "decode": "Hundred Million Tissue Culture Infectious Dose 50%",
    "submissionValue": "10^8 TCID 50/dose",
    "synonyms": [
     "10^8 50 Percent Tissue Culture Infective Dose per Dose"
    ]
   },
   {
    "code": "C105489",
    "decode": "Hundred Million Per Liter",
    "submissionValue": "10^8/L",
    "synonyms": [
     "10^2/mm3",
     "10^2/uL",
     "10^5/mL"
    ]
   },
   {
    "code": "C68897",
    "decode": "Billion Colony Forming Units",
    "submissionValue": "10^9 CFU",
    "synonyms": [
     "Billion CFU",
     "Billion Colony Forming Units"
    ]
   },
   {
    "code": "C68901",
    "decode": "Billion Colony Forming Units per Gram",
    "submissionValue": "10^9 CFU/g",
    "synonyms": [
     "Billion CFU/g",
     "Billion Colony Forming Units per Gram"
    ]
   },
   {
    "code": "C68905",
    "decode": "Billion Colony Forming Units per Milliliter",
    "submissionValue": "10^9 CFU/mL",
    "synonyms": [
     "Billion CFU/mL",
     "Billion Colony Forming Units per Milliliter"
    ]
   },
   {
    "code": "C198386",
    "decode": "Billion Copies per Milliliter",
    "submissionValue": "10^9 copies/mL",
    "synonyms": [
     "Billion Copies per Milliliter"
    ]
   },
   {
    "code": "C198387",
    "decode": "Billion International Units per Milliliter",
    "submissionValue": "10^9 IU/mL",
    "synonyms": [
     "Billion International Units per Milliliter"
    ]
   },
   {
    "code": "C71189",
    "decode": "Billion Organisms",
    "submissionValue": "10^9 organisms",
    "synonyms": [
     "Billion Organisms"
    ]
   },
   {
    "code": "C71192",
    "decode": "Billion Organisms per Gram",
    "submissionValue": "10^9 organisms/g",
    "synonyms": [
     "Billion Organisms per Gram",
     "Billion Organisms/g"
    ]
   },
   {
    "code": "C71194",
    "decode": "Billion Organisms per Milligram",
    "submissionValue": "10^9 organisms/mg",
    "synonyms": [
     "Billion Organisms per Milligram",
     "Billion Organisms/mg"
    ]
   },
   {
    "code": "C71197",
    "decode": "Billion Organisms per Milliliter",
    "submissionValue": "10^9 organisms/mL",
    "synonyms": [
     "Billion Organisms per Milliliter",
     "Billion Organisms/mL"
    ]
   },
   {
    "code": "C67267",
    "decode": "Billion Plaque Forming Units",
    "submissionValue": "10^9 PFU",
    "synonyms": [
     "Billion PFU",
     "Billion Plaque Forming Units"
    ]
   },
   {
    "code": "C187998",
    "decode": "Billion Therapeutic Cells Dosing Unit",
    "submissionValue": "10^9 Therapeutic Cells",
    "synonyms": []
   },
   {
    "code": "C163561",
    "decode": "Billion per Dose",
    "submissionValue": "10^9/dose",
    "synonyms": []
   },
   {
    "code": "C122200",
    "decode": "Billion per Gram",
    "submissionValue": "10^9/g",
    "synonyms": [
     "/ng",
     "1/ng",
     "10^12/kg",
     "10^3/ug",
     "10^6/mg"
    ]
   },
   {
    "code": "C67255",
    "decode": "Billion per Liter",
    "submissionValue": "10^9/L",
    "synonyms": [
     "/nL",
     "1/nL",
     "10^3/mm3",
     "10^3/uL",
     "10^6/mL",
     "G/L",
     "GI/L",
     "Giga per Liter",
     "Giga/L",
     "K/cumm",
     "Thou/mcL"
    ]
   },
   {
    "code": "C198388",
    "decode": "Billion per Microliter",
    "submissionValue": "10^9/uL",
    "synonyms": [
     "10^12/mL",
     "10^15/L",
     "10^3/pL",
     "10^6/nL"
    ]
   },
   {
    "code": "C214761",
    "decode": "Antibody Binding Capacity Unit",
    "submissionValue": "ABC",
    "synonyms": [
     "Antibody Binding Capacity Unit"
    ]
   },
   {
    "code": "C73686",
    "decode": "Absorbance Unit",
    "submissionValue": "Absorbance U",
    "synonyms": [
     "Absorbance Unit",
     "AU"
    ]
   },
   {
    "code": "C73687",
    "decode": "Absorbance Unit per Minute",
    "submissionValue": "Absorbance U/min",
    "synonyms": [
     "Absorbance Unit per Minute",
     "AU/min"
    ]
   },
   {
    "code": "C126078",
    "decode": "Absorbance Unit per Milliliter",
    "submissionValue": "Absorbance U/mL",
    "synonyms": [
     "AU/mL"
    ]
   },
   {
    "code": "C122629",
    "decode": "Actuation Dosing Unit",
    "submissionValue": "ACTUATION",
    "synonyms": [
     "Act Dosing Unit",
     "Actuation Dosing Unit"
    ]
   },
   {
    "code": "C77534",
    "decode": "Arbitrary Fluorescence Units",
    "submissionValue": "AFU",
    "synonyms": [
     "Arbitrary Fluorescence Unit"
    ]
   },
   {
    "code": "C64553",
    "decode": "Attogram",
    "submissionValue": "ag",
    "synonyms": [
     "Attogram"
    ]
   },
   {
    "code": "C209702",
    "decode": "Aggregation Unit",
    "submissionValue": "AGGREGATION UNIT",
    "synonyms": [
     "Arbitrary Aggregation Unit",
     "AU"
    ]
   },
   {
    "code": "C70500",
    "decode": "Antigen Unit per Milliliter",
    "submissionValue": "AgU/mL",
    "synonyms": [
     "Antigen Unit per Milliliter"
    ]
   },
   {
    "code": "C163562",
    "decode": "Arithmetic Mean Fluorescence Intensity Unit",
    "submissionValue": "aMFI",
    "synonyms": [
     "Arithmetic Mean Fluorescence Intensity Unit"
    ]
   },
   {
    "code": "C68855",
    "decode": "Attomole",
    "submissionValue": "amol",
    "synonyms": [
     "Attomole"
    ]
   },
   {
    "code": "C42536",
    "decode": "Ampere",
    "submissionValue": "amp",
    "synonyms": [
     "Ampere"
    ]
   },
   {
    "code": "C48473",
    "decode": "Ampule Dosing Unit",
    "submissionValue": "AMPULE",
    "synonyms": [
     "Ampule Dosing Unit"
    ]
   },
   {
    "code": "C64559",
    "decode": "Atomic Mass Unit",
    "submissionValue": "amu",
    "synonyms": [
     "Atomic Mass Unit"
    ]
   },
   {
    "code": "C122201",
    "decode": "Anson Unit",
    "submissionValue": "Anson U",
    "synonyms": [
     "AU"
    ]
   },
   {
    "code": "C70497",
    "decode": "Anti-Xa Activity International Unit",
    "submissionValue": "anti-Xa IU",
    "synonyms": [
     "Anti-Xa Activity International Unit"
    ]
   },
   {
    "code": "C70498",
    "decode": "Anti-Xa Activity International Unit per Milliliter",
    "submissionValue": "anti-Xa IU/mL",
    "synonyms": [
     "Anti-Xa Activity International Unit per Milliliter"
    ]
   },
   {
    "code": "C111129",
    "decode": "Antibody Unit",
    "submissionValue": "Antibody Unit",
    "synonyms": [
     "AU"
    ]
   },
   {
    "code": "C122202",
    "decode": "IgA Phospholipid Unit",
    "submissionValue": "APL U",
    "synonyms": [
     "[APL'U]",
     "Immunoglobin A Phospholipid Units"
    ]
   },
   {
    "code": "C117965",
    "decode": "Immunoglobin A Phospholipid Unit per Milliliter",
    "submissionValue": "APL U/mL",
    "synonyms": [
     "Immunoglobin A Phospholipid Units per Milliliter"
    ]
   },
   {
    "code": "C25397",
    "decode": "Application Unit",
    "submissionValue": "APPLICATION",
    "synonyms": [
     "Application Dosing Unit"
    ]
   },
   {
    "code": "C161498",
    "decode": "Phosphatidylserine IgA Antibody Unit",
    "submissionValue": "APS U",
    "synonyms": [
     "Immunoglobin A Phosphatidylserine Units",
     "Phosphatidylserine IgA Antibody Unit"
    ]
   },
   {
    "code": "C186219",
    "decode": "Phosphatidylserine IgA Antibody Unit per Milliliter",
    "submissionValue": "APS U/mL",
    "synonyms": [
     "Immunoglobin A Phosphatidylserine Units/mL",
     "Phosphatidylserine IgA Antibody Unit/mL"
    ]
   },
   {
    "code": "C75765",
    "decode": "Arbitrary Unit",
    "submissionValue": "Arbitrary U",
    "synonyms": [
     "AU"
    ]
   },
   {
    "code": "C191361",
    "decode": "Arbitrary Unit per Milliliter",
    "submissionValue": "Arbitrary U/mL",
    "synonyms": [
     "AU/mL"
    ]
   },
   {
    "code": "C189642",
    "decode": "Armour Unit",
    "submissionValue": "ARMOUR UNIT",
    "synonyms": [
     "AU"
    ]
   },
   {
    "code": "C54711",
    "decode": "Atmosphere",
    "submissionValue": "atm",
    "synonyms": [
     "Atmosphere"
    ]
   },
   {
    "code": "C70504",
    "decode": "Allergy Unit per Milliliter",
    "submissionValue": "AU/mL",
    "synonyms": [
     "Allergy Unit per Milliliter",
     "kAU/L",
     "kUA/L",
     "UA/mL"
    ]
   },
   {
    "code": "C48474",
    "decode": "Bag Dosing Unit",
    "submissionValue": "BAG",
    "synonyms": [
     "Bag Dosing Unit"
    ]
   },
   {
    "code": "C48475",
    "decode": "Bar Dosing Unit",
    "submissionValue": "BAR",
    "synonyms": [
     "Bar Dosing Unit"
    ]
   },
   {
    "code": "C70505",
    "decode": "Bioequivalent Allergy Unit",
    "submissionValue": "BAU",
    "synonyms": [
     "BAU",
     "Bioequivalent Allergy Unit"
    ]
   },
   {
    "code": "C116235",
    "decode": "Bioequivalent Allergy Unit per Milliliter",
    "submissionValue": "BAU/mL",
    "synonyms": [
     "BAU/mL",
     "Bioequivalent Allergy Unit per Milliliter"
    ]
   },
   {
    "code": "C116231",
    "decode": "Biological Allergy Unit per Milliliter",
    "submissionValue": "BE/mL",
    "synonyms": [
     "Biological Unit per Milliliter"
    ]
   },
   {
    "code": "C129002",
    "decode": "Beam Break Unit",
    "submissionValue": "BEAM BREAKS",
    "synonyms": []
   },
   {
    "code": "C49673",
    "decode": "Beats per Minute",
    "submissionValue": "beats/min",
    "synonyms": [
     "Beats per Minute",
     "BPM",
     "bpm"
    ]
   },
   {
    "code": "C71200",
    "decode": "Bel",
    "submissionValue": "bel",
    "synonyms": [
     "Bel"
    ]
   },
   {
    "code": "C189120",
    "decode": "Binding Antibody Unit",
    "submissionValue": "Binding Ab Unit",
    "synonyms": [
     "BAU",
     "Binding Antibody Unit"
    ]
   },
   {
    "code": "C189647",
    "decode": "Binding Antibody Unit per Milliliter",
    "submissionValue": "Binding Ab Unit/mL",
    "synonyms": [
     "BAU/mL",
     "Binding Antibody Unit per Milliliter"
    ]
   },
   {
    "code": "C111139",
    "decode": "Biscuit Dosing Unit",
    "submissionValue": "BISCUIT",
    "synonyms": [
     "Biscuit Dosing Unit"
    ]
   },
   {
    "code": "C111140",
    "decode": "Block Unit of Distance",
    "submissionValue": "BLOCKS",
    "synonyms": []
   },
   {
    "code": "C48476",
    "decode": "Bolus Dosing Unit",
    "submissionValue": "BOLUS",
    "synonyms": [
     "Bolus Dosing Unit"
    ]
   },
   {
    "code": "C48477",
    "decode": "Bottle Dosing Unit",
    "submissionValue": "BOTTLE",
    "synonyms": [
     "Bottle Dosing Unit"
    ]
   },
   {
    "code": "C151970",
    "decode": "Bowl Dosing Unit",
    "submissionValue": "BOWL",
    "synonyms": [
     "Bowl Dosing Unit"
    ]
   },
   {
    "code": "C48478",
    "decode": "Box Dosing Unit",
    "submissionValue": "BOX",
    "synonyms": [
     "Box Dosing Unit"
    ]
   },
   {
    "code": "C132477",
    "decode": "Base Pair Unit",
    "submissionValue": "BP",
    "synonyms": [
     "BASE PAIRS"
    ]
   },
   {
    "code": "C42562",
    "decode": "Becquerel",
    "submissionValue": "Bq",
    "synonyms": [
     "Becquerel"
    ]
   },
   {
    "code": "C70522",
    "decode": "Becquerel per Gram",
    "submissionValue": "Bq/g",
    "synonyms": [
     "Becquerel per Gram"
    ]
   },
   {
    "code": "C70521",
    "decode": "Becquerel per Kilogram",
    "submissionValue": "Bq/kg",
    "synonyms": [
     "Becquerel per Kilogram"
    ]
   },
   {
    "code": "C71165",
    "decode": "Becquerel per Liter",
    "submissionValue": "Bq/L",
    "synonyms": [
     "Becquerel per Liter"
    ]
   },
   {
    "code": "C70524",
    "decode": "Becquerel per Milligram",
    "submissionValue": "Bq/mg",
    "synonyms": [
     "Becquerel per Milligram",
     "kBq/g",
     "Kilobecquerel per Gram"
    ]
   },
   {
    "code": "C71167",
    "decode": "Becquerel per Milliliter",
    "submissionValue": "Bq/mL",
    "synonyms": [
     "Becquerel per Milliliter",
     "kBq/L",
     "Kilobecquerel per Liter"
    ]
   },
   {
    "code": "C70523",
    "decode": "Becquerel per Microgram",
    "submissionValue": "Bq/ug",
    "synonyms": [
     "Becquerel per Microgram",
     "Bq/mcg",
     "Bq/ug",
     "kBq/mg",
     "Kilobecquerel per Milligram",
     "MBq/g",
     "Megabecquerel per Gram"
    ]
   },
   {
    "code": "C71166",
    "decode": "Becquerel per Microliter",
    "submissionValue": "Bq/uL",
    "synonyms": [
     "Becquerel per Microliter",
     "kBq/mL",
     "Kilobecquerel per Milliliter",
     "MBq/L",
     "Megabecquerel per Liter"
    ]
   },
   {
    "code": "C176382",
    "decode": "Breaths per Thirty Seconds",
    "submissionValue": "breaths/30 s",
    "synonyms": [
     "Breaths per 30 Seconds",
     "breaths/30s"
    ]
   },
   {
    "code": "C49674",
    "decode": "Breaths per Minute",
    "submissionValue": "breaths/min",
    "synonyms": [
     "Breaths per Minute"
    ]
   },
   {
    "code": "C117966",
    "decode": "Bethesda Unit",
    "submissionValue": "BU",
    "synonyms": [
     "Bethesda Unit"
    ]
   },
   {
    "code": "C117967",
    "decode": "Bethesda Unit per Milliliter",
    "submissionValue": "BU/mL",
    "synonyms": [
     "Bethesda Unit per Milliliter"
    ]
   },
   {
    "code": "C42559",
    "decode": "Degree Celsius",
    "submissionValue": "C",
    "synonyms": [
     "Degree Celsius"
    ]
   },
   {
    "code": "C67270",
    "decode": "Complement Activity Enzyme Unit",
    "submissionValue": "CAE Unit",
    "synonyms": [
     "Complement Activity Enzyme Unit"
    ]
   },
   {
    "code": "C67193",
    "decode": "calorie",
    "submissionValue": "cal",
    "synonyms": [
     "Calorie"
    ]
   },
   {
    "code": "C48479",
    "decode": "Can Dosing Unit",
    "submissionValue": "CAN",
    "synonyms": [
     "Can Dosing Unit"
    ]
   },
   {
    "code": "C102405",
    "decode": "Capful Dosing Unit",
    "submissionValue": "CAPFUL",
    "synonyms": [
     "Capful Dosing Unit"
    ]
   },
   {
    "code": "C64696",
    "decode": "Caplet Dosing Unit",
    "submissionValue": "CAPLET",
    "synonyms": [
     "Caplet Dosing Unit"
    ]
   },
   {
    "code": "C48480",
    "decode": "Capsule Dosing Unit",
    "submissionValue": "CAPSULE",
    "synonyms": [
     "cap",
     "Capsule Dosing Unit"
    ]
   },
   {
    "code": "C48481",
    "decode": "Cartridge Dosing Unit",
    "submissionValue": "CARTRIDGE",
    "synonyms": [
     "Cartridge Dosing Unit"
    ]
   },
   {
    "code": "C70535",
    "decode": "50 Percent Cell Culture Infective Dose per Dose",
    "submissionValue": "CCID 50/dose",
    "synonyms": [
     "50 Percent Cell Culture Infective Dose per Dose"
    ]
   },
   {
    "code": "C120845",
    "decode": "50 Percent Cell Culture Infective Dose per Milliliter",
    "submissionValue": "CCID 50/mL",
    "synonyms": [
     "50 Percent Cell Culture Infective Dose per Milliliter"
    ]
   },
   {
    "code": "C42538",
    "decode": "Candela",
    "submissionValue": "cd",
    "synonyms": [
     "Candela"
    ]
   },
   {
    "code": "C122203",
    "decode": "Candela Second per Square Meter",
    "submissionValue": "cd*s/m2",
    "synonyms": []
   },
   {
    "code": "C122204",
    "decode": "Candela per Square Meter",
    "submissionValue": "cd/m2",
    "synonyms": []
   },
   {
    "code": "C68898",
    "decode": "Colony Forming Unit per Gram",
    "submissionValue": "CFU/g",
    "synonyms": [
     "Colony Forming Unit per Gram"
    ]
   },
   {
    "code": "C68902",
    "decode": "Colony Forming Unit per Milliliter",
    "submissionValue": "CFU/mL",
    "synonyms": [
     "Colony Forming Unit per Milliliter"
    ]
   },
   {
    "code": "C64554",
    "decode": "Centigram",
    "submissionValue": "cg",
    "synonyms": [
     "Centigram"
    ]
   },
   {
    "code": "C128269",
    "decode": "Cobalt Gray Equivalent",
    "submissionValue": "CGE",
    "synonyms": [
     "Cobalt Gray Equivalent"
    ]
   },
   {
    "code": "C64693",
    "decode": "Centigray",
    "submissionValue": "cGy",
    "synonyms": [
     "Centigray"
    ]
   },
   {
    "code": "C48466",
    "decode": "Curie",
    "submissionValue": "Ci",
    "synonyms": [
     "Curie"
    ]
   },
   {
    "code": "C70528",
    "decode": "Curie per Gram",
    "submissionValue": "Ci/g",
    "synonyms": [
     "Curie per Gram",
     "mCi/mg",
     "Microcurie per Microgram",
     "Millicurie per Milligram",
     "uCi/ug"
    ]
   },
   {
    "code": "C70529",
    "decode": "Curie per Kilogram",
    "submissionValue": "Ci/kg",
    "synonyms": [
     "Curie per Kilogram",
     "mCi/g",
     "Microcurie per Milligram",
     "Millicurie per Gram",
     "uCi/mg"
    ]
   },
   {
    "code": "C71170",
    "decode": "Curie per Liter",
    "submissionValue": "Ci/L",
    "synonyms": [
     "Curie per Liter",
     "Microcurie per Microliter",
     "uCi/uL"
    ]
   },
   {
    "code": "C70531",
    "decode": "Curie per Milligram",
    "submissionValue": "Ci/mg",
    "synonyms": [
     "Curie per Milligram",
     "mCi/ug",
     "Millicurie per Microgram"
    ]
   },
   {
    "code": "C71172",
    "decode": "Curie per Milliliter",
    "submissionValue": "Ci/mL",
    "synonyms": [
     "Curie per Milliliter"
    ]
   },
   {
    "code": "C209703",
    "decode": "Curie per Millimole",
    "submissionValue": "Ci/mmol",
    "synonyms": [
     "mCi/umol",
     "uCi/nmol"
    ]
   },
   {
    "code": "C70530",
    "decode": "Curie per Microgram",
    "submissionValue": "Ci/ug",
    "synonyms": [
     "Ci/mcg",
     "Curie per Microgram"
    ]
   },
   {
    "code": "C71171",
    "decode": "Curie per Microliter",
    "submissionValue": "Ci/uL",
    "synonyms": [
     "Ci/mcL",
     "Curie per Microliter"
    ]
   },
   {
    "code": "C116244",
    "decode": "Cigar Dosing Unit",
    "submissionValue": "CIGAR",
    "synonyms": [
     "Cigar Dosing Unit"
    ]
   },
   {
    "code": "C116245",
    "decode": "Cigarette Dosing Unit",
    "submissionValue": "CIGARETTE",
    "synonyms": [
     "Cigarette Dosing Unit"
    ]
   },
   {
    "code": "C69087",
    "decode": "Centiliter",
    "submissionValue": "cL",
    "synonyms": [
     "Centiliter"
    ]
   },
   {
    "code": "C91060",
    "decode": "Centimeters of Water",
    "submissionValue": "cm H2O",
    "synonyms": []
   },
   {
    "code": "C49668",
    "decode": "Centimeter",
    "submissionValue": "cm",
    "synonyms": [
     "Centimeter"
    ]
   },
   {
    "code": "C105481",
    "decode": "Centimeter Per Minute",
    "submissionValue": "cm/min",
    "synonyms": [
     "Centimeters per Minute"
    ]
   },
   {
    "code": "C102406",
    "decode": "Centimeter per Second",
    "submissionValue": "cm/s",
    "synonyms": [
     "cm/sec"
    ]
   },
   {
    "code": "C48460",
    "decode": "Square Centimeter",
    "submissionValue": "cm2",
    "synonyms": [
     "Square Centimeter"
    ]
   },
   {
    "code": "C204704",
    "decode": "Square Centimeter per Second",
    "submissionValue": "cm2/s",
    "synonyms": []
   },
   {
    "code": "C135518",
    "decode": "Centimeter of Water Times Second per Milliliter",
    "submissionValue": "cmH2O*s/mL",
    "synonyms": []
   },
   {
    "code": "C135519",
    "decode": "Centimeter of Water Times Second Squared per Milliliter",
    "submissionValue": "cmH2O*s2/mL",
    "synonyms": []
   },
   {
    "code": "C135520",
    "decode": "Centimeter of Water per Milliliter",
    "submissionValue": "cmH2O/mL",
    "synonyms": []
   },
   {
    "code": "C201487",
    "decode": "Centimeter of Water per Milliliter per Second",
    "submissionValue": "cmH2O/mL/s",
    "synonyms": []
   },
   {
    "code": "C147129",
    "decode": "Centimeters of Mercury",
    "submissionValue": "cmHg",
    "synonyms": [
     "Centimeter of Mercury"
    ]
   },
   {
    "code": "C68687",
    "decode": "Centimole",
    "submissionValue": "cmol",
    "synonyms": [
     "Centimole"
    ]
   },
   {
    "code": "C68886",
    "decode": "Centimole per Liter",
    "submissionValue": "cmol/L",
    "synonyms": [
     "Millimoles per Deciliter",
     "mmol/dL"
    ]
   },
   {
    "code": "C48483",
    "decode": "Coat Dosing Unit",
    "submissionValue": "COAT",
    "synonyms": [
     "Coat Dosing Unit"
    ]
   },
   {
    "code": "C48484",
    "decode": "Container Dosing Unit",
    "submissionValue": "CONTAINER",
    "synonyms": [
     "Container Dosing Unit"
    ]
   },
   {
    "code": "C198389",
    "decode": "Copies per Cell",
    "submissionValue": "copies/cell",
    "synonyms": []
   },
   {
    "code": "C100900",
    "decode": "Copies per Milliliter",
    "submissionValue": "copies/mL",
    "synonyms": []
   },
   {
    "code": "C126079",
    "decode": "Copies per Microgram",
    "submissionValue": "copies/ug",
    "synonyms": []
   },
   {
    "code": "C116237",
    "decode": "Copies per Microliter",
    "submissionValue": "copies/uL",
    "synonyms": []
   },
   {
    "code": "C42550",
    "decode": "Coulomb",
    "submissionValue": "Coulomb",
    "synonyms": [
     "Coulomb"
    ]
   },
   {
    "code": "C69092",
    "decode": "Centipoise",
    "submissionValue": "cP",
    "synonyms": [
     "Centipoise",
     "Millipascal Second",
     "s*mPa"
    ]
   },
   {
    "code": "C73688",
    "decode": "Count per Minute",
    "submissionValue": "cpm",
    "synonyms": [
     "Counts per Minute"
    ]
   },
   {
    "code": "C105482",
    "decode": "Centisecond",
    "submissionValue": "cs",
    "synonyms": [
     "10^-2 sec",
     "Centisecond",
     "csec"
    ]
   },
   {
    "code": "C204703",
    "decode": "Coresta Unit",
    "submissionValue": "Cu",
    "synonyms": [
     "Coresta Unit"
    ]
   },
   {
    "code": "C172604",
    "decode": "Cup Equivalent",
    "submissionValue": "cup eq",
    "synonyms": [
     "Cup Equivalent",
     "cup-eq"
    ]
   },
   {
    "code": "C54703",
    "decode": "Cup Dosing Unit",
    "submissionValue": "CUP",
    "synonyms": [
     "Cup Dosing Unit"
    ]
   },
   {
    "code": "C204702",
    "decode": "Cuts per Inch",
    "submissionValue": "CUTS/in",
    "synonyms": [
     "Cuts Per Inch"
    ]
   },
   {
    "code": "C114242",
    "decode": "Grating Cycles per Centimeter",
    "submissionValue": "cy/cm",
    "synonyms": [
     "cpcm",
     "Grating Cycles per Centimeter"
    ]
   },
   {
    "code": "C71176",
    "decode": "Cycle per Minute",
    "submissionValue": "cycle/min",
    "synonyms": [
     "Cycle per Minute"
    ]
   },
   {
    "code": "C48489",
    "decode": "Cylinder Dosing Unit",
    "submissionValue": "CYLINDER",
    "synonyms": [
     "Cylinder Dosing Unit"
    ]
   },
   {
    "code": "C70501",
    "decode": "D Antigen Unit",
    "submissionValue": "DAgU",
    "synonyms": [
     "D Antigen Unit"
    ]
   },
   {
    "code": "C70502",
    "decode": "D Antigen Unit per Milliliter",
    "submissionValue": "DAgU/mL",
    "synonyms": [
     "D Antigen Unit per Milliliter"
    ]
   },
   {
    "code": "C105483",
    "decode": "Decamole Per Liter",
    "submissionValue": "damol/L",
    "synonyms": [
     "Decamole per Liter",
     "mol/dL",
     "Moles per Deciliter"
    ]
   },
   {
    "code": "C191360",
    "decode": "Decapascal",
    "submissionValue": "daPa",
    "synonyms": [
     "Decapascal"
    ]
   },
   {
    "code": "C198211",
    "decode": "Day Times Nanogram Per Milliliter Per Milligram Per Kilogram",
    "submissionValue": "day*ng/mL/(mg/kg)",
    "synonyms": []
   },
   {
    "code": "C25301",
    "decode": "Day",
    "submissionValue": "DAYS",
    "synonyms": []
   },
   {
    "code": "C170634",
    "decode": "Days Per Month",
    "submissionValue": "days/month",
    "synonyms": []
   },
   {
    "code": "C170633",
    "decode": "Days Per Week",
    "submissionValue": "days/wk",
    "synonyms": [
     "days/week"
    ]
   },
   {
    "code": "C102407",
    "decode": "Decibel",
    "submissionValue": "dB",
    "synonyms": [
     "Decibel"
    ]
   },
   {
    "code": "C161494",
    "decode": "D-Dimer Unit",
    "submissionValue": "DDU",
    "synonyms": [
     "D-Dimer Unit"
    ]
   },
   {
    "code": "C68667",
    "decode": "Degree Unit of Plane Angle",
    "submissionValue": "deg",
    "synonyms": [
     "Degree Unit of Plane Angle",
     "Degrees"
    ]
   },
   {
    "code": "C161488",
    "decode": "Degree Per Millimeter",
    "submissionValue": "deg/mm",
    "synonyms": []
   },
   {
    "code": "C166097",
    "decode": "Degrees Per Second",
    "submissionValue": "deg/s",
    "synonyms": []
   },
   {
    "code": "C166098",
    "decode": "Degrees Squared",
    "submissionValue": "deg2",
    "synonyms": [
     "sq. deg."
    ]
   },
   {
    "code": "C100899",
    "decode": "Diopter",
    "submissionValue": "DIOPTER",
    "synonyms": [
     "Diopter"
    ]
   },
   {
    "code": "C82483",
    "decode": "Dip Dosing Unit",
    "submissionValue": "DIP",
    "synonyms": [
     "Dip Dosing Unit",
     "Snuff Dosing Unit"
    ]
   },
   {
    "code": "C48490",
    "decode": "Disk Dosing Unit",
    "submissionValue": "DISK",
    "synonyms": [
     "Disk Dosing Unit"
    ]
   },
   {
    "code": "C64697",
    "decode": "Deciliter",
    "submissionValue": "dL",
    "synonyms": [
     "Deciliter"
    ]
   },
   {
    "code": "C68685",
    "decode": "Decimole",
    "submissionValue": "dmol",
    "synonyms": [
     "Decimole"
    ]
   },
   {
    "code": "C98719",
    "decode": "DNA Copies per Milliliter",
    "submissionValue": "DNA copies/mL",
    "synonyms": [
     "DNA Copies per Milliliter"
    ]
   },
   {
    "code": "C170632",
    "decode": "DNA Copies Per Microgram",
    "submissionValue": "DNA copies/ug",
    "synonyms": []
   },
   {
    "code": "C73710",
    "decode": "Disintegration per Minute",
    "submissionValue": "DPM",
    "synonyms": [
     "Disintegrations per Minute"
    ]
   },
   {
    "code": "C120846",
    "decode": "Disintegrations per Minute per 0.5 Milliliter",
    "submissionValue": "dpm/0.5 mL",
    "synonyms": [
     "Disintegrations per Minute per 0.5 Milliliter"
    ]
   },
   {
    "code": "C117968",
    "decode": "Disintegration per Minute per 100 milligrams",
    "submissionValue": "dpm/100 mg",
    "synonyms": [
     "Disintegrations per Minute per 100 milligrams",
     "dpm/cg"
    ]
   },
   {
    "code": "C187969",
    "decode": "Disintegration per Minute per Gram",
    "submissionValue": "dpm/g",
    "synonyms": [
     "Disintegrations per Minute per Gram"
    ]
   },
   {
    "code": "C117969",
    "decode": "Disintegration per Minute per Milligram",
    "submissionValue": "dpm/mg",
    "synonyms": [
     "Disintegrations per Minute per Milligram"
    ]
   },
   {
    "code": "C117970",
    "decode": "Disintegration per Minute per Milliliter",
    "submissionValue": "dpm/mL",
    "synonyms": [
     "Disintegrations per Minute per Milliliter"
    ]
   },
   {
    "code": "C64564",
    "decode": "Dram Mass Unit",
    "submissionValue": "dram",
    "synonyms": [
     "Dram"
    ]
   },
   {
    "code": "C161487",
    "decode": "Drink Dosing Unit",
    "submissionValue": "DRINK",
    "synonyms": [
     "Drink Dosing Unit"
    ]
   },
   {
    "code": "C69441",
    "decode": "Drop",
    "submissionValue": "DROP",
    "synonyms": [
     "Drip"
    ]
   },
   {
    "code": "C48492",
    "decode": "Drum Dosing Unit",
    "submissionValue": "DRUM",
    "synonyms": [
     "Drum Dosing Unit"
    ]
   },
   {
    "code": "C70470",
    "decode": "Dyne",
    "submissionValue": "dyn",
    "synonyms": [
     "Dyne"
    ]
   },
   {
    "code": "C221685",
    "decode": "Dyne Second per Centimeter to the Fifth Power",
    "submissionValue": "dyn*s/cm5",
    "synonyms": [
     "dyne*sec/cm5"
    ]
   },
   {
    "code": "C225759",
    "decode": "Electronic Cigarette Dosing Unit",
    "submissionValue": "E-CIGARETTE",
    "synonyms": [
     "eCigarette Dosing Unit",
     "Electronic Cigarette Dosing Unit"
    ]
   },
   {
    "code": "C161491",
    "decode": "Electrochemiluminescence Unit",
    "submissionValue": "ECL unit",
    "synonyms": [
     "Electrochemiluminescence Unit"
    ]
   },
   {
    "code": "C122205",
    "decode": "Enzyme Immunoassay Unit",
    "submissionValue": "EIA unit",
    "synonyms": [
     "EIA value",
     "Enzyme Immunoassay Unit"
    ]
   },
   {
    "code": "C70533",
    "decode": "50 Percent Embryo Infective Dose per Dose",
    "submissionValue": "EID 50/dose",
    "synonyms": [
     "50 Percent Embryo Infective Dose per Dose"
    ]
   },
   {
    "code": "C120847",
    "decode": "50 Percent Embryo Infective Dose per Milliliter",
    "submissionValue": "EID 50/mL",
    "synonyms": [
     "50 Percent Embryo Infective Dose per Milliliter"
    ]
   },
   {
    "code": "C130046",
    "decode": "Ejaculate Unit",
    "submissionValue": "Ejaculate U",
    "synonyms": []
   },
   {
    "code": "C68875",
    "decode": "Enzyme-Linked Immunosorbent Assay Unit",
    "submissionValue": "ELISA unit",
    "synonyms": [
     "Enzyme-Linked Immunosorbent Assay Unit"
    ]
   },
   {
    "code": "C68876",
    "decode": "Enzyme-Linked Immunosorbent Assay Unit per Dose",
    "submissionValue": "ELISA unit/dose",
    "synonyms": [
     "Enzyme-Linked Immunosorbent Assay Unit per Dose"
    ]
   },
   {
    "code": "C68877",
    "decode": "Enzyme-Linked Immunosorbent Assay Unit per Milliliter",
    "submissionValue": "ELISA unit/mL",
    "synonyms": [
     "Enzyme-Linked Immunosorbent Assay Unit per Milliliter"
    ]
   },
   {
    "code": "C221688",
    "decode": "Endotoxin Unit",
    "submissionValue": "Endotoxin U",
    "synonyms": [
     "Endotoxin Unit",
     "EU"
    ]
   },
   {
    "code": "C221689",
    "decode": "Endotoxin Unit per Milliliter",
    "submissionValue": "Endotoxin U/mL",
    "synonyms": [
     "Endotoxin Unit per Milliliter",
     "EU/mL"
    ]
   },
   {
    "code": "C186220",
    "decode": "Envelope Dosing Unit",
    "submissionValue": "ENVELOPE",
    "synonyms": [
     "Envelope Dosing Unit"
    ]
   },
   {
    "code": "C64778",
    "decode": "Enzyme Unit",
    "submissionValue": "Enzyme U",
    "synonyms": [
     "Enzyme Unit",
     "EU"
    ]
   },
   {
    "code": "C154856",
    "decode": "Enzyme Unit per Gram Hemoglobin",
    "submissionValue": "Enzyme U/g Hb",
    "synonyms": [
     "Enzyme Unit per Gram of Hemoglobin",
     "EU/g Hb"
    ]
   },
   {
    "code": "C147130",
    "decode": "Enzyme Unit per Liter",
    "submissionValue": "Enzyme U/L",
    "synonyms": [
     "Enzyme Unit/L",
     "EU/L"
    ]
   },
   {
    "code": "C156467",
    "decode": "Enzyme Unit per Meter Squared",
    "submissionValue": "Enzyme U/m2",
    "synonyms": []
   },
   {
    "code": "C225760",
    "decode": "Enzyme Unit per Milligram of Protein",
    "submissionValue": "Enzyme U/mg Protein",
    "synonyms": [
     "Enzyme U/mg Tprot",
     "Enzyme Unit per Milligram of Protein"
    ]
   },
   {
    "code": "C176384",
    "decode": "European Pharmacopoeia Unit",
    "submissionValue": "EP U",
    "synonyms": [
     "European Pharmacopoeia Unit"
    ]
   },
   {
    "code": "C67273",
    "decode": "Equivalent Weight",
    "submissionValue": "eq",
    "synonyms": [
     "Equivalent Weight"
    ]
   },
   {
    "code": "C96599",
    "decode": "Ehrlich Unit",
    "submissionValue": "EU",
    "synonyms": [
     "Ehrlich Units",
     "EU/dL"
    ]
   },
   {
    "code": "C150901",
    "decode": "Event Unit",
    "submissionValue": "EVENTS",
    "synonyms": []
   },
   {
    "code": "C44277",
    "decode": "Degree Fahrenheit",
    "submissionValue": "F",
    "synonyms": [
     "Degree Fahrenheit"
    ]
   },
   {
    "code": "C42552",
    "decode": "Farad",
    "submissionValue": "Farad",
    "synonyms": [
     "Farad"
    ]
   },
   {
    "code": "C96649",
    "decode": "Fibrinogen Equivalent Unit",
    "submissionValue": "FEU",
    "synonyms": [
     "Fibrinogen Equivalent Units"
    ]
   },
   {
    "code": "C75303",
    "decode": "Focus Forming Unit",
    "submissionValue": "FFU",
    "synonyms": [
     "Focus-forming Units"
    ]
   },
   {
    "code": "C189650",
    "decode": "Focus Forming Unit per Milliliter",
    "submissionValue": "FFU/mL",
    "synonyms": [
     "Focus Forming Units/mL"
    ]
   },
   {
    "code": "C64552",
    "decode": "Femtogram",
    "submissionValue": "fg",
    "synonyms": [
     "Femtogram"
    ]
   },
   {
    "code": "C53499",
    "decode": "Film Dosing Unit",
    "submissionValue": "FILM",
    "synonyms": [
     "Film Dosing Unit"
    ]
   },
   {
    "code": "C209704",
    "decode": "Fingertip Unit of Length",
    "submissionValue": "FINGERTIP LENGTH UNIT",
    "synonyms": [
     "Fingertip Unit of Length",
     "FTU"
    ]
   },
   {
    "code": "C71321",
    "decode": "Fingertip Dosing Unit",
    "submissionValue": "FINGERTIP UNIT",
    "synonyms": [
     "Fingertip Dosing Unit",
     "FTU"
    ]
   },
   {
    "code": "C163045",
    "decode": "Fluorescence Intensity Unit",
    "submissionValue": "FIU",
    "synonyms": [
     "Fluorescence Intensity Unit",
     "MFI"
    ]
   },
   {
    "code": "C64780",
    "decode": "Femtoliter",
    "submissionValue": "fL",
    "synonyms": [
     "Cubic Micrometer",
     "Cubic Micron",
     "Femtoliter",
     "um3"
    ]
   },
   {
    "code": "C68854",
    "decode": "Femtomole",
    "submissionValue": "fmol",
    "synonyms": [
     "Femtomole"
    ]
   },
   {
    "code": "C73711",
    "decode": "Femtomole per Gram",
    "submissionValue": "fmol/g",
    "synonyms": [
     "Femtomole per Gram"
    ]
   },
   {
    "code": "C68887",
    "decode": "Femtomole per Liter",
    "submissionValue": "fmol/L",
    "synonyms": [
     "Femtomole per Liter"
    ]
   },
   {
    "code": "C122206",
    "decode": "Femtomole per Liter per Second",
    "submissionValue": "fmol/L/s",
    "synonyms": [
     "Femtomoles per Liter per Second",
     "fmol/L/sec"
    ]
   },
   {
    "code": "C48577",
    "decode": "Fluid Ounce British",
    "submissionValue": "foz_br",
    "synonyms": [
     "Fluid Ounce Imperial"
    ]
   },
   {
    "code": "C48494",
    "decode": "Fluid Ounce US",
    "submissionValue": "foz_us",
    "synonyms": [
     "Fluid Ounce US"
    ]
   },
   {
    "code": "C105484",
    "decode": "Fraction of 1",
    "submissionValue": "fraction of 1",
    "synonyms": [
     "Proportion of 1"
    ]
   },
   {
    "code": "C106524",
    "decode": "Frames Per Second",
    "submissionValue": "Frames/s",
    "synonyms": [
     "F/s",
     "FPS",
     "Frames per Second",
     "Frames/sec"
    ]
   },
   {
    "code": "C71253",
    "decode": "International Foot",
    "submissionValue": "ft",
    "synonyms": [
     "Foot"
    ]
   },
   {
    "code": "C48461",
    "decode": "Square Foot",
    "submissionValue": "ft2",
    "synonyms": [
     "Square Foot"
    ]
   },
   {
    "code": "C68859",
    "decode": "Standard Cubic Foot",
    "submissionValue": "ft3",
    "synonyms": [
     "Standard Cubic Foot"
    ]
   },
   {
    "code": "C225761",
    "decode": "Grams Iodine",
    "submissionValue": "g IODINE",
    "synonyms": [
     "gI",
     "Grams Iodine"
    ]
   },
   {
    "code": "C225762",
    "decode": "Grams Iodine Per Liter",
    "submissionValue": "g IODINE/L",
    "synonyms": [
     "gI/L",
     "Grams Iodine Per Liter",
     "mgI/mL"
    ]
   },
   {
    "code": "C48155",
    "decode": "Gram",
    "submissionValue": "g",
    "synonyms": [
     "Gram"
    ]
   },
   {
    "code": "C222688",
    "decode": "Gram per One Hundred Grams",
    "submissionValue": "g/100g",
    "synonyms": [
     "Grams per 100 Grams"
    ]
   },
   {
    "code": "C204705",
    "decode": "Gram per 9000 Meters",
    "submissionValue": "g/9000m",
    "synonyms": [
     "Den",
     "Denier"
    ]
   },
   {
    "code": "C73713",
    "decode": "Gram per Animal",
    "submissionValue": "g/animal",
    "synonyms": [
     "Gram per Animal"
    ]
   },
   {
    "code": "C73714",
    "decode": "Gram per Animal per Day",
    "submissionValue": "g/animal/day",
    "synonyms": [
     "Gram per Animal per Day"
    ]
   },
   {
    "code": "C73715",
    "decode": "Gram per Animal per Week",
    "submissionValue": "g/animal/wk",
    "synonyms": [
     "Gram per Animal per Week"
    ]
   },
   {
    "code": "C73716",
    "decode": "Gram per Cage",
    "submissionValue": "g/cage",
    "synonyms": [
     "Gram per Cage"
    ]
   },
   {
    "code": "C73717",
    "decode": "Gram per Cage per Day",
    "submissionValue": "g/cage/day",
    "synonyms": [
     "Gram per Cage per Day"
    ]
   },
   {
    "code": "C73718",
    "decode": "Gram per Cage per Week",
    "submissionValue": "g/cage/wk",
    "synonyms": [
     "Gram per Cage per Week"
    ]
   },
   {
    "code": "C71201",
    "decode": "Gram per Square Centimeter",
    "submissionValue": "g/cm2",
    "synonyms": [
     "Gram per Square Centimeter"
    ]
   },
   {
    "code": "C204706",
    "decode": "Gram per Cubic Centimeter",
    "submissionValue": "g/cm3",
    "synonyms": []
   },
   {
    "code": "C67372",
    "decode": "Gram per 24 Hours",
    "submissionValue": "g/day",
    "synonyms": [
     "g/24h"
    ]
   },
   {
    "code": "C64783",
    "decode": "Gram per Deciliter",
    "submissionValue": "g/dL",
    "synonyms": [
     "g%",
     "Gram per Deciliter"
    ]
   },
   {
    "code": "C70453",
    "decode": "Gram per Gram",
    "submissionValue": "g/g",
    "synonyms": [
     "kg/kg",
     "mcg/mcg",
     "mg/mg",
     "ug/ug"
    ]
   },
   {
    "code": "C73720",
    "decode": "Gram per Gram per Day",
    "submissionValue": "g/g/day",
    "synonyms": [
     "Gram per Gram per Day"
    ]
   },
   {
    "code": "C69104",
    "decode": "Gram per Kilogram",
    "submissionValue": "g/kg",
    "synonyms": [
     "Gram per Kilogram",
     "mg/g",
     "Microgram per Milligram",
     "Milligram per Gram",
     "ug/mg"
    ]
   },
   {
    "code": "C66975",
    "decode": "Gram per Kilogram per Day",
    "submissionValue": "g/kg/day",
    "synonyms": [
     "Gram per Kilogram per Day",
     "mg/g/day",
     "Milligram per Gram per Day"
    ]
   },
   {
    "code": "C42576",
    "decode": "Kilogram per Cubic Meter",
    "submissionValue": "g/L",
    "synonyms": [
     "g/L",
     "Gram per Liter",
     "kg/m3",
     "Kilogram per Cubic Meter",
     "mg/mL",
     "Microgram per Microliter",
     "Milligram per Milliliter",
     "ug/uL"
    ]
   },
   {
    "code": "C67282",
    "decode": "Gram per Square Meter",
    "submissionValue": "g/m2",
    "synonyms": [
     "Gram per Square Meter"
    ]
   },
   {
    "code": "C187982",
    "decode": "Gram per Hour times Square Meter",
    "submissionValue": "g/m2*h",
    "synonyms": [
     "g/h*m2"
    ]
   },
   {
    "code": "C73722",
    "decode": "Gram per Square Meter per Day",
    "submissionValue": "g/m2/day",
    "synonyms": [
     "Gram per Square Meter per Day"
    ]
   },
   {
    "code": "C73721",
    "decode": "Gram per Mole",
    "submissionValue": "g/mol",
    "synonyms": [
     "mg/mmol"
    ]
   },
   {
    "code": "C198390",
    "decode": "Gram per Short Ton",
    "submissionValue": "g/ston_av",
    "synonyms": [
     "g/2000lb",
     "g/Short ton",
     "g/US ton"
    ]
   },
   {
    "code": "C166099",
    "decode": "Gram Per Unit",
    "submissionValue": "g/U",
    "synonyms": []
   },
   {
    "code": "C89829",
    "decode": "Gram per Week",
    "submissionValue": "g/wk",
    "synonyms": [
     "Gram per Week"
    ]
   },
   {
    "code": "C68915",
    "decode": "Gauss",
    "submissionValue": "Gauss",
    "synonyms": [
     "Gauss"
    ]
   },
   {
    "code": "C70513",
    "decode": "Gigabecquerel",
    "submissionValue": "GBq",
    "synonyms": [
     "Gigabecquerel"
    ]
   },
   {
    "code": "C70525",
    "decode": "Gigabecquerel per Gram",
    "submissionValue": "GBq/g",
    "synonyms": [
     "GBq/g",
     "Gigabecquerel per Gram",
     "kBq/ug",
     "Kilobecquerel per Microgram",
     "MBq/mg",
     "Megabecquerel per Milligram"
    ]
   },
   {
    "code": "C70527",
    "decode": "Gigabecquerel per Milligram",
    "submissionValue": "GBq/mg",
    "synonyms": [
     "Gigabecquerel per Milligram",
     "MBq/mcg",
     "MBq/ug",
     "Megabecquerel per Microgram"
    ]
   },
   {
    "code": "C70526",
    "decode": "Gigabecquerel per Microgram",
    "submissionValue": "GBq/ug",
    "synonyms": [
     "GBq/mcg",
     "Gigabecquerel per Microgram",
     "MBq/ng",
     "Megabecquerel per nanogram"
    ]
   },
   {
    "code": "C209705",
    "decode": "Gigabecquerel per Micromole",
    "submissionValue": "GBq/umol",
    "synonyms": [
     "kBq/pmol",
     "MBq/nmol"
    ]
   },
   {
    "code": "C161493",
    "decode": "Genomic Equivalents",
    "submissionValue": "genEq",
    "synonyms": [
     "GE",
     "Genomic Equivalents"
    ]
   },
   {
    "code": "C161492",
    "decode": "Genomic Equivalents per Milliliter",
    "submissionValue": "genEq/mL",
    "synonyms": [
     "GE/mL",
     "Genomic Equivalents per Milliliter"
    ]
   },
   {
    "code": "C225763",
    "decode": "Milligram Equivalents Per Milliliter",
    "submissionValue": "gEq/L",
    "synonyms": [
     "mgEq/mL",
     "Milligram Equivalents/Milliliter",
     "ngEq/nL",
     "ugEq/uL"
    ]
   },
   {
    "code": "C198391",
    "decode": "Glass Dosing Unit",
    "submissionValue": "GLASS",
    "synonyms": [
     "Glass Dosing Unit"
    ]
   },
   {
    "code": "C91803",
    "decode": "Globule Unit",
    "submissionValue": "GLOBULE",
    "synonyms": []
   },
   {
    "code": "C163563",
    "decode": "Geometric Mean Fluorescence Intensity Unit",
    "submissionValue": "gMFI",
    "synonyms": [
     "Geometric Mean Fluorescence Intensity Unit"
    ]
   },
   {
    "code": "C130190",
    "decode": "Glycoprotein-ELISA Unit Per Milliliter",
    "submissionValue": "gpELISA unit/mL",
    "synonyms": []
   },
   {
    "code": "C67347",
    "decode": "IgG Phospholipid Unit",
    "submissionValue": "GPL U",
    "synonyms": [
     "[GPL'U]",
     "Immunoglobin G Phospholipid Units"
    ]
   },
   {
    "code": "C117971",
    "decode": "Immunoglobin G Phospholipid Unit per Milliliter",
    "submissionValue": "GPL U/mL",
    "synonyms": [
     "Immunoglobin G Phospholipid Units per Milliliter"
    ]
   },
   {
    "code": "C161497",
    "decode": "Phosphatidylserine IgG Antibody Unit",
    "submissionValue": "GPS U",
    "synonyms": [
     "Immunoglobin G Phosphatidylserine Units",
     "Phosphatidylserine IgG Antibody Unit"
    ]
   },
   {
    "code": "C186221",
    "decode": "Phosphatidylserine IgG Antibody Unit per Milliliter",
    "submissionValue": "GPS U/mL",
    "synonyms": [
     "Immunoglobin G Phosphatidylserine Units/mL",
     "Phosphatidylserine IgG Antibody Unit/mL"
    ]
   },
   {
    "code": "C48497",
    "decode": "Grain",
    "submissionValue": "grain",
    "synonyms": [
     "Grain"
    ]
   },
   {
    "code": "C73772",
    "decode": "Unit of Gravity",
    "submissionValue": "Gravitational Unit",
    "synonyms": []
   },
   {
    "code": "C48491",
    "decode": "Metric Drop",
    "submissionValue": "gtt",
    "synonyms": [
     "Metric Drop"
    ]
   },
   {
    "code": "C186222",
    "decode": "Chewable Gel Dosing Unit",
    "submissionValue": "GUMMY",
    "synonyms": [
     "Gummy Dosing Unit"
    ]
   },
   {
    "code": "C18063",
    "decode": "Gray",
    "submissionValue": "Gy",
    "synonyms": [
     "Gray"
    ]
   },
   {
    "code": "C158295",
    "decode": "Gray per Hour",
    "submissionValue": "Gy/h",
    "synonyms": [
     "Gray/Hour"
    ]
   },
   {
    "code": "C158296",
    "decode": "Gray per Minute",
    "submissionValue": "Gy/min",
    "synonyms": [
     "Gray/Minute"
    ]
   },
   {
    "code": "C139131",
    "decode": "Hour Times Percent",
    "submissionValue": "h*%",
    "synonyms": []
   },
   {
    "code": "C85624",
    "decode": "Hour Times Nanogram per Milliliter",
    "submissionValue": "h*ng/mL",
    "synonyms": [
     "h*ug/L"
    ]
   },
   {
    "code": "C85640",
    "decode": "Hour Times Picomole per Milliliter",
    "submissionValue": "h*nmol/L",
    "synonyms": []
   },
   {
    "code": "C170635",
    "decode": "Hours Per Week",
    "submissionValue": "h/wk",
    "synonyms": [
     "hours/week"
    ]
   },
   {
    "code": "C71216",
    "decode": "Hand Unit of Length",
    "submissionValue": "HAND UNIT",
    "synonyms": [
     "Hand Unit of Length"
    ]
   },
   {
    "code": "C42558",
    "decode": "Henry",
    "submissionValue": "Henry",
    "synonyms": [
     "Henry"
    ]
   },
   {
    "code": "C116232",
    "decode": "Histamine Equivalent Prick Unit",
    "submissionValue": "HEP",
    "synonyms": [
     "Histamine Equivalent Prick Unit"
    ]
   },
   {
    "code": "C48498",
    "decode": "Homeopathic Dilution Unit",
    "submissionValue": "HOMEOPATHIC DILUTION",
    "synonyms": [
     "Homeopathic Dilution Unit"
    ]
   },
   {
    "code": "C94908",
    "decode": "Hounsfield Unit",
    "submissionValue": "Hounsfield Unit",
    "synonyms": [
     "HU"
    ]
   },
   {
    "code": "C25529",
    "decode": "Hour",
    "submissionValue": "HOURS",
    "synonyms": [
     "h",
     "Hours",
     "hr"
    ]
   },
   {
    "code": "C105487",
    "decode": "Hectopascal",
    "submissionValue": "hPa",
    "synonyms": [
     "Hectopascal"
    ]
   },
   {
    "code": "C176380",
    "decode": "Hour per Day",
    "submissionValue": "hr/day",
    "synonyms": [
     "Hours per Day"
    ]
   },
   {
    "code": "C42545",
    "decode": "Hertz",
    "submissionValue": "Hz",
    "synonyms": [
     "Cycle per Second",
     "cycle/sec",
     "Hertz"
    ]
   },
   {
    "code": "C154854",
    "decode": "Hertz Per Second",
    "submissionValue": "Hz/s",
    "synonyms": [
     "Hz/sec"
    ]
   },
   {
    "code": "C48499",
    "decode": "Implant Dosing Unit",
    "submissionValue": "IMPLANT",
    "synonyms": [
     "Implant Dosing Unit"
    ]
   },
   {
    "code": "C48500",
    "decode": "Inch",
    "submissionValue": "in",
    "synonyms": [
     "Inch"
    ]
   },
   {
    "code": "C68871",
    "decode": "Square Inch",
    "submissionValue": "in2",
    "synonyms": [
     "Square Inch"
    ]
   },
   {
    "code": "C48501",
    "decode": "Inhalation Dosing Unit",
    "submissionValue": "INHALATION",
    "synonyms": [
     "Inhalation Dosing Unit"
    ]
   },
   {
    "code": "C122632",
    "decode": "Injection Dosing Unit",
    "submissionValue": "INJECTION",
    "synonyms": [
     "Injection Dosing Unit"
    ]
   },
   {
    "code": "C48579",
    "decode": "International Unit",
    "submissionValue": "IU",
    "synonyms": [
     "IE",
     "International Unit"
    ]
   },
   {
    "code": "C85645",
    "decode": "International Unit per Day",
    "submissionValue": "IU/day",
    "synonyms": []
   },
   {
    "code": "C120848",
    "decode": "International Unit per Deciliter",
    "submissionValue": "IU/dL",
    "synonyms": [
     "10 IU/L",
     "International Units per Deciliter"
    ]
   },
   {
    "code": "C122207",
    "decode": "International Unit per Gram Hemoglobin",
    "submissionValue": "IU/g Hb",
    "synonyms": []
   },
   {
    "code": "C70493",
    "decode": "International Unit per Gram",
    "submissionValue": "IU/g",
    "synonyms": [
     "International Unit per Gram"
    ]
   },
   {
    "code": "C85646",
    "decode": "International Unit per Hour",
    "submissionValue": "IU/h",
    "synonyms": [
     "IU/h"
    ]
   },
   {
    "code": "C67379",
    "decode": "International Unit per Kilogram",
    "submissionValue": "IU/kg",
    "synonyms": [
     "International Unit per Kilogram"
    ]
   },
   {
    "code": "C71209",
    "decode": "International Unit per Kilogram per Hour",
    "submissionValue": "IU/kg/h",
    "synonyms": [
     "International units per Kilogram per Hour"
    ]
   },
   {
    "code": "C67376",
    "decode": "International Unit per Liter",
    "submissionValue": "IU/L",
    "synonyms": [
     "IE/L",
     "International Unit per Liter",
     "IU/L",
     "mIU/mL"
    ]
   },
   {
    "code": "C67380",
    "decode": "International Unit per Milligram",
    "submissionValue": "IU/mg",
    "synonyms": [
     "International Unit per Milligram"
    ]
   },
   {
    "code": "C67377",
    "decode": "International Unit per Milliliter",
    "submissionValue": "IU/mL",
    "synonyms": [
     "IE/mL",
     "International Unit per Milliliter",
     "Kilo International Unit per Liter",
     "kIU/L"
    ]
   },
   {
    "code": "C122208",
    "decode": "International Unit per Millimole",
    "submissionValue": "IU/mmol",
    "synonyms": []
   },
   {
    "code": "C67357",
    "decode": "Joule per Square Centimeter",
    "submissionValue": "J/cm2",
    "synonyms": []
   },
   {
    "code": "C48502",
    "decode": "Jar Dosing Unit",
    "submissionValue": "JAR",
    "synonyms": [
     "Jar Dosing Unit"
    ]
   },
   {
    "code": "C172606",
    "decode": "Juvenile Diabetes Foundation Unit",
    "submissionValue": "JDF Unit",
    "synonyms": [
     "JDF U",
     "Juvenile Diabetes Foundation Unit"
    ]
   },
   {
    "code": "C42548",
    "decode": "Joule",
    "submissionValue": "Joule",
    "synonyms": [
     "Joule"
    ]
   },
   {
    "code": "C42537",
    "decode": "Kelvin",
    "submissionValue": "K",
    "synonyms": [
     "Kelvin"
    ]
   },
   {
    "code": "C122209",
    "decode": "King-Armstrong Unit per Deciliter",
    "submissionValue": "ka_u/dL",
    "synonyms": []
   },
   {
    "code": "C48503",
    "decode": "Kallikrein Inhibitor Unit",
    "submissionValue": "KALLIKREIN INHIBITOR UNIT",
    "synonyms": [
     "Kallikrein Inhibitor Unit"
    ]
   },
   {
    "code": "C42566",
    "decode": "Katal",
    "submissionValue": "kat",
    "synonyms": [
     "Katal"
    ]
   },
   {
    "code": "C70511",
    "decode": "Kilobecquerel",
    "submissionValue": "kBq",
    "synonyms": [
     "Kilobecquerel"
    ]
   },
   {
    "code": "C71168",
    "decode": "Kilobecquerel per Microliter",
    "submissionValue": "kBq/uL",
    "synonyms": [
     "GBq/L",
     "Gigabecquerel per Liter",
     "Kilobecquerel per Microliter",
     "MBq/mL",
     "Megabecquerel per Milliliter"
    ]
   },
   {
    "code": "C67194",
    "decode": "Calorie",
    "submissionValue": "kcal",
    "synonyms": [
     "Kilogram-Calorie"
    ]
   },
   {
    "code": "C139135",
    "decode": "Kilocalorie per Day",
    "submissionValue": "kcal/day",
    "synonyms": []
   },
   {
    "code": "C105491",
    "decode": "Kilodalton",
    "submissionValue": "kDa",
    "synonyms": [
     "Kilodalton",
     "Kilounified Atomic Mass Unit",
     "ku"
    ]
   },
   {
    "code": "C67276",
    "decode": "Kiloelectronvolt",
    "submissionValue": "keV",
    "synonyms": [
     "KeV",
     "Kiloelectronvolt"
    ]
   },
   {
    "code": "C28252",
    "decode": "Kilogram",
    "submissionValue": "kg",
    "synonyms": [
     "Kilogram"
    ]
   },
   {
    "code": "C120849",
    "decode": "Kilogram per Centimeter",
    "submissionValue": "kg/cm",
    "synonyms": []
   },
   {
    "code": "C69094",
    "decode": "Kilogram per Square Centimeter",
    "submissionValue": "kg/cm2",
    "synonyms": [
     "Kilogram per Square Centimeter"
    ]
   },
   {
    "code": "C64566",
    "decode": "Kilogram per Liter",
    "submissionValue": "kg/L",
    "synonyms": [
     "g/mL",
     "Gram per Milliliter",
     "gram/mL",
     "kg/L",
     "Kilogram per Liter",
     "mg/uL"
    ]
   },
   {
    "code": "C49671",
    "decode": "Kilogram per Square Meter",
    "submissionValue": "kg/m2",
    "synonyms": [
     "Kilogram per Square Meter"
    ]
   },
   {
    "code": "C122210",
    "decode": "Kilogram per Mole",
    "submissionValue": "kg/mol",
    "synonyms": [
     "g/mmol"
    ]
   },
   {
    "code": "C67279",
    "decode": "Kilohertz",
    "submissionValue": "kHz",
    "synonyms": [
     "kilohertz"
    ]
   },
   {
    "code": "C48504",
    "decode": "Kit Dosing Unit",
    "submissionValue": "KIT",
    "synonyms": [
     "Kit Dosing Unit"
    ]
   },
   {
    "code": "C70492",
    "decode": "Kilointernational Unit",
    "submissionValue": "kIU",
    "synonyms": [
     "Kilo International Unit"
    ]
   },
   {
    "code": "C71177",
    "decode": "Kilometer",
    "submissionValue": "km",
    "synonyms": [
     "Kilometer"
    ]
   },
   {
    "code": "C71203",
    "decode": "Kilometer per Hour",
    "submissionValue": "km/h",
    "synonyms": [
     "Kilometer Per Hour"
    ]
   },
   {
    "code": "C92615",
    "decode": "Kilonewton per Centimeter Squared",
    "submissionValue": "kN/cm2",
    "synonyms": [
     "kdyn/cm2",
     "Kilonewton per Centimeter Squared"
    ]
   },
   {
    "code": "C67284",
    "decode": "Kilopascal",
    "submissionValue": "kPa",
    "synonyms": [
     "Kilopascal"
    ]
   },
   {
    "code": "C105492",
    "decode": "Kilopascal Per Liter Per Second",
    "submissionValue": "kPa/L/s",
    "synonyms": [
     "kPa/L/sec",
     "Pa/mL/sec"
    ]
   },
   {
    "code": "C105493",
    "decode": "Kilosecond",
    "submissionValue": "ks",
    "synonyms": [
     "10^3 sec",
     "Kilosecond",
     "ksec"
    ]
   },
   {
    "code": "C71202",
    "decode": "Kilo United States Pharmacopeia Unit",
    "submissionValue": "kUSP",
    "synonyms": [
     "Kilo United States Pharmacopeia Unit"
    ]
   },
   {
    "code": "C170630",
    "decode": "Kilovolt",
    "submissionValue": "kV",
    "synonyms": [
     "Kilovolt"
    ]
   },
   {
    "code": "C48505",
    "decode": "Liter",
    "submissionValue": "L",
    "synonyms": [
     "Liter"
    ]
   },
   {
    "code": "C69110",
    "decode": "Liter per Day",
    "submissionValue": "L/day",
    "synonyms": []
   },
   {
    "code": "C69160",
    "decode": "Liter per Hour",
    "submissionValue": "L/h",
